time,seconds_elapsed,z,y,x
1772455995963364000,2.160364013671875,-1.0606313943862915,6.914454460144043,-7.053318023681641
1772455995973427500,2.170427490234375,-1.0821791887283325,7.086836814880371,-6.983886241912842
1772455995984090000,2.181090087890625,-0.9744400978088379,7.189787864685059,-7.01979923248291
1772455995994076400,2.191076416015625,-1.072602391242981,7.163451671600342,-6.9695210456848145
1772455996004123100,2.201123046875,-1.1540051698684692,7.038952827453613,-7.0317702293396
1772455996014134000,2.211134033203125,-1.1252747774124146,7.0772600173950195,-6.981492042541504
1772455996024482300,2.221482421875,-1.1348515748977661,6.97430944442749,-7.079654216766357
1772455996034144000,2.23114404296875,-1.0630255937576294,6.98628044128418,-7.050923824310303
1772455996044193300,2.241193359375,-1.0678139925003052,6.955155849456787,-7.01979923248291
1772455996054154200,2.251154296875,-1.139639973640442,7.067683219909668,-7.003039836883545
1772455996064192000,2.26119189453125,-1.1061211824417114,7.168240070343018,-7.082048416137695
1772455996074176800,2.2711767578125,-1.0773907899856567,7.139509677886963,-7.0341644287109375
1772455996084830200,2.281830322265625,-1.0654197931289673,7.15387487411499,-7.015010833740234
1772455996105810200,2.30281005859375,-1.0989385843276978,7.094019412994385,-7.038952827453613
1772455996114223900,2.311223876953125,-1.1348515748977661,7.110779285430908,-7.048529624938965
1772455996124576800,2.32157666015625,-1.1037269830703735,7.074865818023682,-7.022193431854248
1772455996134239700,2.33123974609375,-1.0582371950149536,7.137115478515625,-7.007828235626221
1772455996144276700,2.34127685546875,-1.1204863786697388,7.050923824310303,-7.043741226196289
1772455996154282200,2.3512822265625,-1.1037269830703735,7.072471618652344,-7.0341644287109375
1772455996164334800,2.3613349609375,-1.0845733880996704,7.089231014251709,-7.017405033111572
1772455996174314200,2.371314208984375,-1.113303780555725,7.060500621795654,-6.921637058258057
1772455996184336100,2.381336181640625,-1.0797849893569946,7.06528902053833,-6.993463039398193
1772455996194326300,2.391326171875,-1.1516109704971313,7.060500621795654,-7.0557122230529785
1772455996204369200,2.401369140625,-1.0749965906143188,7.050923824310303,-7.043741226196289
1772455996214344400,2.411344482421875,-1.05105459690094,7.005434036254883,-7.084442615509033
1772455996224676400,2.42167626953125,-1.0749965906143188,6.892906665802002,-7.043741226196289
1772455996234350600,2.4313505859375,-1.115697979927063,6.981492042541504,-7.082048416137695
1772455996244995600,2.44199560546875,-1.1348515748977661,6.995857238769531,-6.998251438140869
1772455996254373600,2.45137353515625,-1.0271124839782715,7.058106422424316,-7.01979923248291
1772455996266875100,2.463875244140625,-1.0055646896362305,7.086836814880371,-7.041347026824951
1772455996274403600,2.471403564453125,-0.9888052940368652,7.06528902053833,-6.97430944442749
1772455996284443000,2.48144287109375,-1.0606313943862915,7.038952827453613,-7.005434036254883
1772455996304462300,2.50146240234375,-1.0797849893569946,7.017405033111572,-7.010222434997559
1772455996314460400,2.51146044921875,-1.0031704902648926,7.017405033111572,-6.9910688400268555
1772455996324817200,2.521817138671875,-1.0342950820922852,7.072471618652344,-6.981492042541504
1772455996334509300,2.53150927734375,-1.0319008827209473,7.022193431854248,-7.026981830596924
1772455996344529400,2.541529296875,-1.0462661981582642,7.094019412994385,-6.936002254486084
1772455996354536400,2.551536376953125,-1.0319008827209473,7.041347026824951,-7.026981830596924
1772455996364567800,2.56156787109375,-1.0199298858642578,7.060500621795654,-6.983886241912842
1772455996374544100,2.571544189453125,-1.0223240852355957,7.1921820640563965,-7.141903877258301
1772455996384555500,2.581555419921875,-1.0342950820922852,7.091625213623047,-6.957550048828125
1772455996394543400,2.59154345703125,-1.0845733880996704,7.0772600173950195,-7.029376029968262
1772455996414573600,2.611573486328125,-1.1180921792984009,6.995857238769531,-7.0557122230529785
1772455996426518800,2.623518798828125,-1.0869675874710083,7.017405033111572,-7.026981830596924
1772455996434610400,2.6316103515625,-1.070208191871643,7.0557122230529785,-7.1251444816589355
1772455996444630000,2.641630126953125,-1.1276689767837524,7.151480674743652,-7.015010833740234
1772455996454594000,2.651593994140625,-1.0247182846069336,7.094019412994385,-7.024587631225586
1772455996464606500,2.6616064453125,-1.072602391242981,7.168240070343018,-7.0557122230529785
1772455996474597400,2.671597412109375,-1.1228805780410767,7.208941459655762,-7.1251444816589355
1772455996484625200,2.681625244140625,-1.0821791887283325,7.161057472229004,-7.017405033111572
1772455996494590200,2.691590087890625,-1.0295066833496094,7.175422668457031,-7.058106422424316
1772455996514596600,2.7115966796875,-1.0893617868423462,7.110779285430908,-6.979097843170166
1772455996524934400,2.721934326171875,-1.0271124839782715,7.005434036254883,-6.98628044128418
1772455996534590700,2.7315908203125,-1.0079588890075684,7.036558628082275,-7.058106422424316
1772455996544619300,2.741619384765625,-1.0821791887283325,7.0772600173950195,-7.003039836883545
1772455996554615600,2.751615478515625,-1.0295066833496094,7.084442615509033,-6.92881965637207
1772455996565248800,2.762248779296875,-1.1013327836990356,7.024587631225586,-6.9910688400268555
1772455996574610000,2.77160986328125,-1.0534487962722778,7.062894821166992,-7.060500621795654
1772455996587094800,2.7840947265625,-1.0797849893569946,7.026981830596924,-7.043741226196289
1772455996594634500,2.791634521484375,-1.0893617868423462,6.998251438140869,-7.082048416137695
1772455996614622500,2.81162255859375,-1.1300631761550903,7.007828235626221,-6.9910688400268555
1772455996624941300,2.82194140625,-1.1061211824417114,6.998251438140869,-6.998251438140869
1772455996634619100,2.831619140625,-1.0845733880996704,7.082048416137695,-6.976703643798828
1772455996644644600,2.84164453125,-1.0319008827209473,7.139509677886963,-7.038952827453613
1772455996654606600,2.851606689453125,-0.9768342971801758,7.050923824310303,-7.0557122230529785
1772455996664610000,2.861610107421875,-1.0630255937576294,7.0317702293396,-7.084442615509033
1772455996674604800,2.871604736328125,-1.0247182846069336,7.096413612365723,-7.072471618652344
1772455996684624000,2.881623779296875,-1.039083480834961,7.062894821166992,-7.007828235626221
1772455996694596400,2.891596435546875,-1.1324573755264282,6.988674640655518,-6.981492042541504
1772455996704599800,2.901599853515625,-1.0845733880996704,6.979097843170166,-7.024587631225586
1772455996725559800,2.922559814453125,-1.0773907899856567,6.912060260772705,-6.950367450714111
1772455996734596900,2.931596923828125,-1.0606313943862915,7.0126166343688965,-6.9455790519714355
1772455996746200600,2.94320068359375,-0.9744400978088379,7.01979923248291,-6.84981107711792
1772455996754612200,2.9516123046875,-1.091755986213684,7.103596210479736,-6.8809356689453125
1772455996764638500,2.961638427734375,-1.1659762859344482,7.094019412994385,-6.890512466430664
1772455996774594800,2.9715947265625,-1.2114660739898682,7.206547260284424,-6.9695210456848145
1772455996784805000,2.98180517578125,-1.290474772453308,7.1490864753723145,-6.919242858886719
1772455996794605800,2.991605712890625,-1.3958195447921753,7.2113356590271,-6.9910688400268555
1772455996804635400,3.001635498046875,-1.556231141090393,7.108384609222412,-7.026981830596924
1772455996814626600,3.01162646484375,-1.6424223184585571,7.280767440795898,-7.117961883544922
1772455996834636000,3.031635986328125,-1.8387469053268433,7.242460250854492,-7.292738437652588
1772455996844660000,3.041659912109375,-2.0207061767578125,6.998251438140869,-7.314286231994629
1772455996854614000,3.051614013671875,-2.030282974243164,6.780379295349121,-7.371747016906738
1772455996864617700,3.06161767578125,-2.0039467811584473,6.8162922859191895,-7.443572998046875
1772455996874614800,3.07161474609375,-2.1140801906585693,6.959944248199463,-7.3885064125061035
1772455996885252400,3.08225244140625,-2.099714994430542,6.933608055114746,-7.3454108238220215
1772455996894608100,3.091608154296875,-2.296039342880249,6.847416877746582,-7.491456985473633
1772455996907104500,3.1041044921875,-2.1763293743133545,6.806715488433838,-7.5201873779296875
1772455996914639000,3.11163916015625,-2.099714994430542,6.7708024978637695,-7.603984832763672
1772455996934625800,3.131625732421875,-2.2026655673980713,6.552929878234863,-7.65186882019043
1772455996944634000,3.141634033203125,-2.188300371170044,6.677428722381592,-7.558494567871094
1772455996954639400,3.151639404296875,-2.298433542251587,6.402095317840576,-7.42681360244751
1772455996964669700,3.161669677734375,-2.205059766769409,6.36378812789917,-7.362170219421387
1772455996974639600,3.1716396484375,-2.322375535964966,6.296750545501709,-7.453149795532227
1772455996984672000,3.181672119140625,-2.2649147510528564,6.452373504638672,-7.577648162841797
1772455996994660400,3.191660400390625,-2.38462495803833,6.440402507781982,-7.63989782333374
1772455997004699100,3.20169921875,-2.47560453414917,6.4595561027526855,-7.663839817047119
1772455997014668500,3.21166845703125,-2.6144683361053467,6.619967937469482,-7.601590633392334
1772455997025002500,3.22200244140625,-2.6192567348480225,6.426037311553955,-7.630321025848389
1772455997034689300,3.231689208984375,-2.609679937362671,6.378153324127197,-7.6997528076171875
1772455997045332000,3.24233203125,-2.6431987285614014,6.2847795486450195,-7.723694801330566
1772455997054694400,3.2516943359375,-2.779668092727661,6.088454723358154,-7.826645374298096
1772455997066335000,3.2633349609375,-2.873042106628418,6.0597243309021,-7.920019149780273
1772455997074710800,3.271710693359375,-3.050212860107422,6.01423454284668,-7.989450931549072
1772455997084739800,3.28173974609375,-3.0142998695373535,5.738901615142822,-7.929595947265625
1772455997094704400,3.291704345703125,-3.0813376903533936,5.655104637145996,-7.931990146636963
1772455997104714500,3.301714599609375,-3.227383852005005,5.52821159362793,-7.965508937835693
1772455997114699800,3.31169970703125,-3.375824451446533,5.4013190269470215,-8.068459510803223
1772455997125045000,3.322044921875,-3.507505416870117,5.140350818634033,-8.111555099487305
1772455997144719000,3.341718994140625,-3.794809579849243,4.953603267669678,-8.149862289428711
1772455997154702600,3.35170263671875,-3.995922565460205,4.850652694702148,-8.348581314086914
1772455997164737800,3.36173779296875,-4.151545524597168,4.8267107009887695,-8.362946510314941
1772455997174702000,3.3717021484375,-4.355052947998047,4.90571928024292,-8.307879447937012
1772455997184714800,3.38171484375,-4.388571739196777,5.011064052581787,-8.485051155090332
1772455997194707000,3.39170703125,-4.402936935424805,4.8602294921875,-8.520963668823242
1772455997205338400,3.40233837890625,-4.4077253341674805,4.786009311676025,-8.497021675109863
1772455997214716200,3.411716064453125,-4.520252704620361,4.5609540939331055,-8.528146743774414
1772455997227554800,3.424554931640625,-4.661510944366455,4.3861775398254395,-8.494627952575684
1772455997235102500,3.4321025390625,-4.73573112487793,4.199429988861084,-8.480262756347656
1772455997254727000,3.451726806640625,-4.69024133682251,3.758896589279175,-8.346187591552734
1772455997264735000,3.46173486328125,-4.6950297355651855,3.512293815612793,-8.286332130432129
1772455997274722800,3.471722900390625,-4.5394062995910645,3.1747114658355713,-8.17380428314209
1772455997284742700,3.48174267578125,-4.405331134796143,2.7533318996429443,-8.221688270568848
1772455997294703400,3.491703369140625,-4.37420654296875,2.669534921646118,-8.190564155578613
1772455997304707300,3.501707275390625,-4.355052947998047,2.4420857429504395,-8.152256965637207
1772455997314685000,3.511684814453125,-4.268861770629883,2.161964178085327,-8.166622161865234
1772455997325017600,3.522017578125,-4.299986362457275,2.0039467811584473,-8.034940719604492
1772455997334699500,3.531699462890625,-4.20421838760376,1.922544002532959,-8.020575523376465
1772455997344697300,3.541697265625,-4.393360137939453,1.8507179021835327,-7.979874134063721
1772455997365315800,3.56231591796875,-4.094084739685059,1.4915876388549805,-8.058882713317871
1772455997374672100,3.571672119140625,-4.0749311447143555,1.357512354850769,-8.099584579467773
1772455997386265900,3.583265869140625,-4.041412353515625,1.1635819673538208,-8.030152320861816
1772455997394654500,3.591654541015625,-4.273650169372559,1.0749965906143188,-8.085219383239746
1772455997404668700,3.601668701171875,-4.264073371887207,0.9816226959228516,-8.269572257995605
1772455997414645000,3.61164501953125,-4.599261283874512,1.0127472877502441,-8.252813339233398
1772455997424960500,3.62196044921875,-4.69024133682251,0.7757213711738586,-8.293514251708984
1772455997434640600,3.631640625,-4.809951305389404,0.6919242739677429,-8.070854187011719
1772455997444686600,3.6416865234375,-4.874594688415527,0.5410895943641663,-8.04691219329834
1772455997464665300,3.661665283203125,-4.994304656982422,0.2082955539226532,-7.955932140350342
1772455997474643200,3.671643310546875,-5.0469770431518555,-0.009576806798577309,-8.030152320861816
1772455997484655600,3.681655517578125,-5.2265424728393555,-0.28730419278144836,-8.066065788269043
1772455997494651600,3.691651611328125,-5.365406036376953,-0.4908113479614258,-8.044517517089844
1772455997504701200,3.701701171875,-5.430049419403076,-0.6344634294509888,-7.996633529663086
1772455997514704600,3.71170458984375,-5.461174011230469,-0.7996633648872375,-7.860164165496826
1772455997525692400,3.7226923828125,-5.489904403686523,-0.8164227604866028,-7.814674377441406
1772455997534751500,3.73175146484375,-5.537788391113281,-0.7972691655158997,-7.82185697555542
1772455997547231700,3.744231689453125,-5.468356609344482,-0.7086837291717529,-7.864952564239502
1772455997554788900,3.751788818359375,-5.477933406829834,-0.689530074596405,-7.8960771560668945
1772455997564824800,3.761824951171875,-5.3127336502075195,-0.8020575642585754,-8.075642585754395
1772455997574785500,3.77178564453125,-5.434837818145752,-0.871489405632019,-8.164227485656738
1772455997584781800,3.78178173828125,-5.521028995513916,-0.9552865028381348,-8.271966934204102
1772455997594758100,3.791758056640625,-5.6670756340026855,-1.0558429956436157,-8.401253700256348
1772455997604800500,3.801800537109375,-5.760449409484863,-1.094150185585022,-8.655038833618164
1772455997614795300,3.811795166015625,-5.743690013885498,-1.2473790645599365,-8.702922821044922
1772455997625120800,3.822120849609375,-5.74129581451416,-1.4221558570861816,-8.832210540771484
1772455997634787300,3.831787353515625,-5.901707172393799,-1.3431471586227417,-8.999804496765137
1772455997644809200,3.841809326171875,-5.762843608856201,-1.3694833517074585,-9.11233139038086
1772455997654795300,3.851795166015625,-5.652710437774658,-1.381454348564148,-9.20091724395752
1772455997664804400,3.861804443359375,-5.714959621429443,-1.4915876388549805,-9.150638580322266
1772455997674795300,3.871795166015625,-5.688623428344727,-1.6184803247451782,-8.99740982055664
1772455997685448700,3.88244873046875,-5.604825973510742,-1.8315643072128296,-8.927978515625
1772455997694806000,3.891805908203125,-5.355829238891602,-2.0661959648132324,-8.971074104309082
1772455997706465800,3.9034658203125,-5.2911858558654785,-2.1978771686553955,-9.160215377807617
1772455997714829800,3.911829833984375,-5.238513469696045,-2.1356279850006104,-9.255983352661133
1772455997725174800,3.9221748046875,-4.95120906829834,-2.296039342880249,-9.351752281188965
1772455997734841000,3.931841064453125,-4.836287498474121,-2.4229321479797363,-9.299078941345215
1772455997744874200,3.941874267578125,-4.553771495819092,-2.5258827209472656,-9.435548782348633
1772455997754869200,3.951869140625,-4.446032524108887,-2.47560453414917,-9.548076629638672
1772455997764905500,3.961905517578125,-4.278438568115234,-2.6001031398773193,-9.677363395690918
1772455997774890500,3.971890380859375,-3.93367338180542,-2.7030537128448486,-9.720458984375
1772455997784910300,3.981910400390625,-3.687070608139038,-2.7772738933563232,-9.797073364257812
1772455997794905900,3.99190576171875,-3.375824451446533,-2.8443117141723633,-9.95748519897461
1772455997804935200,4.00193505859375,-3.160346269607544,-2.736572504043579,-10.144232749938965
1772455997814901800,4.01190185546875,-2.942473888397217,-2.5330653190612793,-10.6709566116333
1772455997825217800,4.0222177734375,-2.80361008644104,-2.513911724090576,-11.21204662322998
1772455997834890800,4.031890869140625,-2.7078421115875244,-2.607285737991333,-11.748347282409668
1772455997845517000,4.04251708984375,-2.734178304672241,-2.913743495941162,-12.15057373046875
1772455997854887200,4.05188720703125,-2.7748796939849854,-3.1938650608062744,-12.586318016052246
1772455997867374600,4.06437451171875,-2.741360902786255,-3.5170822143554688,-12.701239585876465
1772455997874898700,4.071898681640625,-2.6240451335906982,-3.5027170181274414,-13.08910083770752
1772455997884918000,4.08191796875,-2.7246015071868896,-3.248931646347046,-13.357251167297363
1772455997894894600,4.09189453125,-2.7437551021575928,-3.19865345954895,-13.295001983642578
1772455997904896500,4.101896484375,-2.782062292098999,-3.268085241317749,-12.947842597961426
1772455997914887400,4.111887451171875,-2.868253707885742,-3.40216064453125,-12.686874389648438
1772455997925214700,4.122214599609375,-2.7916390895843506,-3.49314022064209,-12.452242851257324
1772455997934863400,4.13186328125,-2.7030537128448486,-3.5194764137268066,-12.368446350097656
1772455997944870100,4.1418701171875,-2.537853717803955,-3.4596214294433594,-12.160150527954102
1772455997954860300,4.1518603515625,-2.2457611560821533,-3.6511576175689697,-11.882423400878906
1772455997964911900,4.161911865234375,-2.032677173614502,-3.928884983062744,-11.544840812683105
1772455997984906500,4.181906494140625,-1.742978811264038,-4.127603530883789,-10.747570991516113
1772455997994900200,4.191900146484375,-0.9050082564353943,-4.1156325340271,-10.002974510192871
1772455998005534700,4.20253466796875,-0.524330198764801,-3.7924153804779053,-9.648633003234863
1772455998014913300,4.211913330078125,-0.15801730751991272,-3.466804027557373,-9.342175483703613
1772455998026873900,4.223873779296875,0.009576806798577309,-3.1890766620635986,-8.944737434387207
1772455998034926300,4.23192626953125,0.23942017555236816,-3.2752678394317627,-8.406042098999023
1772455998044966400,4.24196630859375,0.5291185975074768,-3.5697548389434814,-7.819462776184082
1772455998054922500,4.251922607421875,0.9074024558067322,-3.754108190536499,-7.144298076629639
1772455998064926500,4.261926513671875,1.235408067703247,-3.7900211811065674,-6.445190906524658
1772455998074924300,4.27192431640625,1.6903064250946045,-4.015076160430908,-5.805939197540283
1772455998084948700,4.28194873046875,2.126051187515259,-4.165910720825195,-5.140350818634033
1772455998094928100,4.29192822265625,2.655169725418091,-4.367023944854736,-4.532223701477051
1772455998104919300,4.301919189453125,2.9951462745666504,-4.46518611907959,-3.9025487899780273
1772455998114914300,4.311914306640625,3.708618402481079,-4.649539470672607,-3.40216064453125
1772455998125258200,4.32225830078125,4.742913722991943,-5.094861030578613,-2.7269957065582275
1772455998135245000,4.3322451171875,5.846640586853027,-5.298368453979492,-2.0422539710998535
1772455998144920800,4.3419208984375,6.842628479003906,-4.774038314819336,-1.5083470344543457
1772455998154903600,4.351903564453125,7.759607791900635,-4.003105163574219,-1.0055646896362305
1772455998165547800,4.3625478515625,8.10437297821045,-3.251325845718384,-0.5985504388809204
1772455998174896600,4.371896728515625,7.934384346008301,-2.8131868839263916,-0.3663128614425659
1772455998187428000,4.384427978515625,7.601590633392334,-2.5929205417633057,-0.5051765441894531
1772455998194936000,4.39193603515625,7.2352776527404785,-2.7246015071868896,-0.7158663272857666
1772455998204971500,4.401971435546875,6.7277069091796875,-2.964021682739258,-0.9457096457481384
1772455998225266200,4.42226611328125,5.983109951019287,-4.469974517822266,-1.3718775510787964
1772455998234950000,4.431949951171875,5.91128396987915,-5.394136428833008,-1.8531121015548706
1772455998254965000,4.451965087890625,6.133944988250732,-6.9910688400268555,-3.248931646347046
1772455998264987100,4.461987060546875,5.492298603057861,-7.613561630249023,-5.439626216888428
1772455998274976500,4.4719765625,4.924872875213623,-7.7883381843566895,-6.564900875091553
1772455998285020200,4.482020263671875,4.24970817565918,-7.965508937835693,-7.580042362213135
1772455998294993000,4.491992919921875,3.5625722408294678,-7.953537940979004,-8.489839553833008
1772455998304997400,4.501997314453125,3.1244332790374756,-7.546523571014404,-9.246406555175781
1772455998314978800,4.511978759765625,2.58813214302063,-7.129932880401611,-9.797073364257812
1772455998325935900,4.522935791015625,1.8483237028121948,-6.720524311065674,-10.311826705932617
1772455998346611000,4.54361083984375,0.38307225704193115,-5.473145008087158,-11.41555404663086
1772455998375041800,4.572041748046875,-1.946485996246338,-3.5649664402008057,-13.00051498413086
1772455998385055700,4.5820556640625,-3.201047658920288,-3.1747114658355713,-13.275848388671875
1772455998405105200,4.602105224609375,-3.9480385780334473,-3.224989652633667,-12.536040306091309
1772455998415103700,4.612103759765625,-3.732560396194458,-3.064578056335449,-11.97100830078125
1772455998425443300,4.622443359375,-3.5649664402008057,-2.6791117191314697,-11.75553035736084
1772455998435140400,4.632140380859375,-3.1890766620635986,-2.0661959648132324,-11.520898818969727
1772455998445161700,4.64216162109375,-2.7246015071868896,-1.9129672050476074,-11.082759857177734
1772455998455132400,4.65213232421875,-1.920149803161621,-2.10210919380188,-10.15141487121582
1772455998465153000,4.662153076171875,-1.0749965906143188,-2.542642116546631,-9.308655738830566
1772455998475151400,4.6721513671875,-0.31603461503982544,-2.896984100341797,-8.413225173950195
1772455998485804000,4.682803955078125,0.08379705995321274,-3.1914708614349365,-7.5201873779296875
1772455998545272800,4.74227294921875,8.829815864562988,-3.6966474056243896,-2.5737667083740234
1772455998555259000,4.7522587890625,9.205705642700195,-3.9025487899780273,-1.946485996246338
1772455998565284000,4.7622841796875,9.679757118225098,-4.888959884643555,-1.647210717201233
1772455998575262500,4.772262451171875,9.93354320526123,-5.9088897705078125,-1.3982137441635132
1772455998585262800,4.782262939453125,10.225635528564453,-6.787561893463135,-1.50355863571167
1772455998595239000,4.792239013671875,10.249577522277832,-7.084442615509033,-1.4676456451416016
1772455998605266200,4.80226611328125,10.333374977111816,-7.156269073486328,-1.3455413579940796
1772455998615237000,4.812237060546875,10.309432983398438,-7.070077419281006,-1.4173674583435059
1772455998635259400,4.83225927734375,8.432378768920898,-6.36378812789917,-2.7317841053009033
1772455998645910000,4.842909912109375,6.555324077606201,-6.222530364990234,-4.041412353515625
1772455998655283200,4.852283203125,4.486733913421631,-6.0621185302734375,-5.394136428833008
1772455998666939400,4.863939453125,2.7964274883270264,-5.60722017288208,-6.861782073974609
1772455998675348000,4.872347900390625,1.280897855758667,-5.085284233093262,-8.178592681884766
1772455998685358000,4.882358154296875,0.1867477297782898,-4.388571739196777,-9.32541561126709
1772455998705347600,4.90234765625,-1.4508862495422363,-3.8762125968933105,-10.718840599060059
1772455998715365600,4.91236572265625,-2.346317768096924,-3.780444383621216,-11.05402946472168
1772455998725713200,4.922713134765625,-3.205836057662964,-3.8379054069519043,-11.554417610168457
1772455998735380200,4.932380126953125,-3.751713991165161,-3.804386615753174,-12.227188110351562
1772455998765421000,4.962421142578125,-3.8067808151245117,-2.7509377002716064,-13.953407287597656
1772455998775388400,4.972388427734375,-3.5960910320281982,-1.6041151285171509,-13.843274116516113
1772455998785415200,4.982415283203125,-3.064578056335449,-0.6105214357376099,-13.690045356750488
1772455998795400000,4.99239990234375,-2.011129379272461,0.5267243981361389,-13.405135154724121
1772455998806046200,5.003046142578125,-1.2545616626739502,1.1324573755264282,-12.792220115661621
1772455998815435800,5.012435791015625,-0.5506663918495178,-0.009576806798577309,-12.234370231628418
1772455998828341200,5.02534130859375,-0.33039984107017517,-1.235408067703247,-11.767500877380371
1772455998835825200,5.0328251953125,0.09576806426048279,-2.7222073078155518,-11.398794174194336
1772455998845495000,5.0424951171875,1.2090718746185303,-4.1180267333984375,-10.948684692382812
1772455998855488000,5.052488037109375,2.8826189041137695,-4.987122058868408,-10.20887565612793
1772455998865561600,5.0625615234375,4.426878929138184,-5.188235282897949,-9.205705642700195
1772455998875535400,5.072535400390625,5.659893035888672,-4.72376012802124,-8.056488990783691
1772455998885561900,5.082561767578125,6.864176273345947,-4.165910720825195,-7.194576263427734
1772455998895566300,5.09256640625,7.50582218170166,-3.5649664402008057,-6.308721542358398
1772455998915585300,5.112585205078125,7.603984832763672,-2.7533318996429443,-5.243301868438721
1772455998925917000,5.1229169921875,7.326257228851318,-2.7222073078155518,-5.07570743560791
1772455998935608600,5.132608642578125,6.63433313369751,-2.9448680877685547,-4.876988887786865
1772455998966274000,5.163274169921875,5.03021764755249,-3.818751811981201,-4.496310710906982
1772455998975667500,5.17266748046875,4.479551315307617,-3.6367924213409424,-4.311957359313965
1772455998987293200,5.184293212890625,4.122815132141113,-3.339911460876465,-4.513070106506348
1772455998995689200,5.192689208984375,3.7229835987091064,-3.2130186557769775,-5.1810526847839355
1772455999005707000,5.20270703125,3.112462282180786,-3.2130186557769775,-6.356605529785156
1772455999015699200,5.21269921875,2.2170307636260986,-3.4093432426452637,-7.754819393157959
1772455999026064600,5.223064697265625,1.4460978507995605,-3.7421371936798096,-9.169792175292969
1772455999035726000,5.23272607421875,0.5817909836769104,-3.892971992492676,-10.228029251098633
1772455999045742300,5.242742431640625,0.10773907601833344,-3.861847400665283,-10.951078414916992
1772455999065793500,5.26279345703125,-1.50355863571167,-2.190694570541382,-13.043610572814941
1772455999075762000,5.272761962890625,-2.207453966140747,-1.778891921043396,-13.941436767578125
1772455999085779700,5.28277978515625,-3.004723072052002,-1.6136919260025024,-14.528016090393066
1772455999095763700,5.292763671875,-3.2632968425750732,-1.7956513166427612,-14.654908180236816
1772455999105830400,5.302830322265625,-3.315969467163086,-2.049436569213867,-14.312538146972656
1772455999115798000,5.312798095703125,-3.1459810733795166,-2.2816741466522217,-13.836091995239258
1772455999126729700,5.323729736328125,-2.9688100814819336,-2.363077163696289,-13.330915451049805
1772455999135796500,5.33279638671875,-2.609679937362671,-2.3774423599243164,-12.804190635681152
1772455999148329000,5.345328857421875,-2.073378562927246,-2.43011474609375,-12.15057373046875
1772455999155842600,5.352842529296875,-1.2976573705673218,-2.52109432220459,-11.295844078063965
1772455999185896000,5.38289599609375,1.4844050407409668,-2.4013843536376953,-8.916007041931152
1772455999196266200,5.393266357421875,3.021482467651367,-2.454056739807129,-7.987056732177734
1772455999205897000,5.40289697265625,4.094084739685059,-2.782062292098999,-7.127538681030273
1772455999215907600,5.412907470703125,4.764461517333984,-3.7038300037384033,-6.088454723358154
1772455999226294000,5.4232939453125,5.272032260894775,-4.888959884643555,-5.480327606201172
1772455999235941000,5.432941162109375,5.432443618774414,-5.588066577911377,-5.039794445037842
1772455999245982200,5.442982177734375,5.851428985595703,-5.810727596282959,-4.908113479614258
1772455999255963000,5.452962890625,6.236895561218262,-5.456385612487793,-4.929661273956299
1772455999265997000,5.4629970703125,6.8162922859191895,-4.630385875701904,-4.663905143737793
1772455999275964000,5.4729638671875,7.424419403076172,-3.7636849880218506,-4.620809078216553
1772455999307647500,5.5046474609375,6.567295074462891,-2.585737943649292,-5.6191911697387695
1772455999316004600,5.513004638671875,5.920860767364502,-3.095702886581421,-6.672640323638916
1772455999326335700,5.523335693359375,4.558559894561768,-3.9456443786621094,-8.743624687194824
1772455999346093600,5.543093505859375,3.1699230670928955,-4.125209331512451,-9.682151794433594
1772455999356062000,5.55306201171875,2.3989901542663574,-4.182670593261719,-10.182539939880371
1772455999366075000,5.563074951171875,1.4987702369689941,-3.8522706031799316,-10.790667533874512
1772455999376059000,5.573058837890625,0.5793967843055725,-3.643975019454956,-11.51611042022705
1772455999386092500,5.583092529296875,-0.36152446269989014,-3.622427225112915,-12.1194486618042
1772455999396075800,5.59307568359375,-1.2689268589019775,-3.5003228187561035,-12.442666053771973
1772455999406082600,5.60308251953125,-2.205059766769409,-3.40216064453125,-12.658143997192383
1772455999416057000,5.61305712890625,-3.0142998695373535,-2.9664158821105957,-12.94305419921875
1772455999426414300,5.623414306640625,-3.383007049560547,-2.5953147411346436,-13.227964401245117
1772455999446687200,5.643687255859375,-3.069366693496704,-1.3934253454208374,-13.007698059082031
1772455999456074500,5.653074462890625,-2.5498247146606445,-0.8044517636299133,-12.389993667602539
1772455999468589300,5.66558935546875,-1.944091796875,-0.6177040338516235,-11.480196952819824
1772455999476100600,5.6731005859375,-1.161187767982483,-0.730231523513794,-10.66137981414795
1772455999486122800,5.683122802734375,-0.43335050344467163,-1.036689281463623,-9.792284965515137
1772455999496110000,5.693110107421875,0.45489832758903503,-1.5897499322891235,-8.93037223815918
1772455999506137900,5.703137939453125,1.8626888990402222,-2.3582887649536133,-8.38449478149414
1772455999516091600,5.713091552734375,3.4356794357299805,-3.093308687210083,-7.5848307609558105
1772455999526402600,5.723402587890625,4.891354084014893,-3.442862033843994,-6.871358871459961
1772455999536087300,5.73308740234375,6.205770969390869,-3.598485231399536,-6.162675380706787
1772455999546118000,5.743117919921875,7.3023152351379395,-3.488351821899414,-5.4252610206604
1772455999556088000,5.753088134765625,7.965508937835693,-3.359065055847168,-4.726154327392578
1772455999566099500,5.763099365234375,8.44195556640625,-3.488351821899414,-4.151545524597168
1772455999576088000,5.773088134765625,8.458714485168457,-3.6607344150543213,-3.6535518169403076
1772455999586135000,5.783135009765625,8.559270858764648,-4.345476150512695,-3.35667085647583
1772455999606726700,5.8037265625,8.015787124633789,-4.932055473327637,-3.4835634231567383
1772455999616119300,5.813119384765625,7.3023152351379395,-4.778826713562012,-3.9839515686035156
1772455999628039400,5.825039306640625,6.4380083084106445,-4.7405195236206055,-4.692635536193848
1772455999636132900,5.8331328125,5.430049419403076,-4.5609540939331055,-5.659893035888672
1772455999646132200,5.84313232421875,4.3406877517700195,-4.412513732910156,-6.763619899749756
1772455999656110300,5.8531103515625,3.3207578659057617,-4.321534156799316,-8.118738174438477
1772455999666155300,5.8631552734375,2.3080103397369385,-4.110844135284424,-9.406818389892578
1772455999676103400,5.873103515625,1.2617442607879639,-3.845088005065918,-10.426748275756836
1772455999686105300,5.883105224609375,0.11013327538967133,-3.44765043258667,-11.42752456665039
1772455999696119300,5.893119384765625,-0.6703764796257019,-3.1076738834381104,-12.100295066833496
1772455999716114700,5.91311474609375,-2.073378562927246,-3.2585084438323975,-12.94305419921875
1772455999726430700,5.9234306640625,-2.5665841102600098,-3.1268274784088135,-12.911930084228516
1772455999736106000,5.93310595703125,-2.875436305999756,-2.518700122833252,-12.859257698059082
1772455999756097000,5.953096923828125,-2.892195701599121,-0.3902548849582672,-12.612654685974121
1772455999766710800,5.963710693359375,-2.6575639247894287,-0.08379705995321274,-12.229581832885742
1772455999776104000,5.97310400390625,-2.3726539611816406,-0.40701428055763245,-11.614272117614746
1772455999788613000,5.985613037109375,-1.7908629179000854,-1.3287819623947144,-10.81700325012207
1772455999796117200,5.9931171875,-1.3120225667953491,-2.2577321529388428,-9.983820915222168
1772455999816091000,6.0130908203125,0.8762778043746948,-3.8283286094665527,-8.638279914855957
1772455999826443800,6.02344384765625,2.801215887069702,-4.632780075073242,-7.862558364868164
1772455999836096300,6.03309619140625,4.551377296447754,-4.836287498474121,-7.01979923248291
1772455999856096000,6.053095947265625,7.450755596160889,-4.594472885131836,-5.430049419403076
1772455999866127600,6.063127685546875,8.664615631103516,-4.608838081359863,-4.168305397033691
1772455999876103700,6.073103759765625,8.89445972442627,-5.147533416748047,-3.9456443786621094
1772455999886115600,6.083115478515625,8.56884765625,-5.442020416259766,-3.9480385780334473
1772455999896092000,6.093091796875,8.034940719604492,-5.66228723526001,-3.864241600036621
1772455999906116000,6.1031162109375,7.383718013763428,-5.884947776794434,-3.950432777404785
1772455999916079600,6.11307958984375,6.890512466430664,-5.626373767852783,-4.027047157287598
1772455999927023000,6.124023193359375,6.356605529785156,-5.4228668212890625,-4.455609321594238
1772455999936090000,6.133090087890625,5.556941986083984,-5.336675643920898,-5.16429328918457
1772455999947769300,6.144769287109375,4.486733913421631,-5.39174222946167,-6.069301128387451
1772455999956102000,6.153101806640625,3.509899616241455,-5.353435039520264,-7.053318023681641
1772455999966105600,6.163105712890625,2.609679937362671,-5.109226226806641,-7.884106159210205
1772455999976096800,6.1730966796875,1.644816517829895,-4.63517427444458,-8.798690795898438
1772455999986137300,6.183137451171875,0.7469909191131592,-4.268861770629883,-9.75397777557373
1772455999996095500,6.193095458984375,0.07422025501728058,-3.7660791873931885,-10.733205795288086
1772456000006104000,6.20310400390625,-0.3902548849582672,-3.315969467163086,-11.508927345275879
1772456000016172800,6.2131728515625,-0.9433154463768005,-3.1100680828094482,-12.078747749328613
1772456000026478600,6.223478515625,-1.3623007535934448,-3.2130186557769775,-12.265495300292969
1772456000036122400,6.233122314453125,-1.5107412338256836,-3.4308910369873047,-12.267889976501465
1772456000046122500,6.24312255859375,-1.601720929145813,-3.3638534545898438,-12.291831970214844
1772456000056096000,6.253095947265625,-1.4053963422775269,-3.0382418632507324,-12.45703125
1772456000066157600,6.263157470703125,-1.2976573705673218,-2.5522189140319824,-12.42351245880127
1772456000076115700,6.27311572265625,-1.0055646896362305,-2.1523873805999756,-12.02607536315918
1772456000086732500,6.283732666015625,-0.6512228846549988,-1.9704279899597168,-11.444284439086914
1772456000096109800,6.29310986328125,-0.1412578970193863,-2.231395959854126,-10.790667533874512
1772456000108627700,6.305627685546875,0.35913026332855225,-2.4013843536376953,-10.249577522277832
1772456000126458400,6.323458251953125,1.7741034030914307,-3.1890766620635986,-9.107542991638184
1772456000136138200,6.33313818359375,2.765302896499634,-3.5170822143554688,-8.571242332458496
1772456000146181600,6.343181640625,4.6040496826171875,-3.3231520652770996,-7.601590633392334
1772456000166173700,6.363173583984375,6.517016887664795,-3.44765043258667,-6.325480937957764
1772456000176168200,6.373168212890625,7.3454108238220215,-3.8762125968933105,-5.580883979797363
1772456000186219300,6.38321923828125,7.872135162353516,-4.302380561828613,-5.080495834350586
1772456000196181200,6.39318115234375,7.898471355438232,-4.812345504760742,-4.754884719848633
1772456000206193200,6.403193115234375,7.800309181213379,-5.585672378540039,-4.596867084503174
1772456000216175400,6.41317529296875,7.481880187988281,-6.205770969390869,-4.699818134307861
1772456000226531000,6.423531005859375,7.0341644287109375,-6.435614109039307,-4.929661273956299
1772456000236184300,6.433184326171875,6.629544734954834,-6.294356346130371,-5.432443618774414
1772456000246800600,6.443800537109375,5.942408561706543,-6.033388137817383,-6.133944988250732
1772456000256181200,6.45318115234375,5.066130638122559,-5.781997203826904,-7.146692276000977
1772456000267807000,6.464806884765625,3.9408559799194336,-5.377377033233643,-8.166622161865234
1772456000276193300,6.473193359375,2.9305028915405273,-5.044582843780518,-8.971074104309082
1772456000286204200,6.4832041015625,2.0254945755004883,-4.6255974769592285,-9.543288230895996
1772456000296193800,6.49319384765625,1.1444283723831177,-4.01268196105957,-10.108319282531738
1772456000306264300,6.503264404296875,0.3208230137825012,-3.5386300086975098,-10.745177268981934
1772456000316230100,6.513230224609375,-0.3280056416988373,-3.0119056701660156,-11.176133155822754
1772456000326554000,6.52355419921875,-0.9481038451194763,-2.5522189140319824,-11.73398208618164
1772456000336259300,6.53325927734375,-1.501164436340332,-2.1787235736846924,-11.896788597106934
1772456000346314500,6.543314453125,-2.0422539710998535,-2.183511972427368,-11.793837547302246
1772456000356291300,6.553291259765625,-2.5282769203186035,-2.2601263523101807,-11.683704376220703
1772456000366304500,6.563304443359375,-2.8826189041137695,-2.252943754196167,-11.611878395080566
1772456000376290000,6.5732900390625,-3.406949043273926,-2.300827741622925,-11.549629211425781
1772456000386343400,6.583343505859375,-3.3231520652770996,-2.3726539611816406,-11.458649635314941
1772456000396315600,6.593315673828125,-2.7916390895843506,-2.451662540435791,-11.018115997314453
1772456000406952000,6.603951904296875,-1.3646949529647827,-2.7006595134735107,-9.801861763000488
1772456000416361500,6.613361572265625,-0.8595184087753296,-3.4332852363586426,-9.244012832641602
1772456000429211100,6.626211181640625,-0.2106897532939911,-4.213795185089111,-8.729259490966797
1772456000436749600,6.63374951171875,1.0079588890075684,-5.245696067810059,-8.279149055480957
1772456000446414300,6.643414306640625,2.6599581241607666,-5.935225963592529,-7.802703380584717
1772456000456411100,6.6534111328125,4.256890773773193,-5.827486991882324,-7.2113356590271
1772456000466440000,6.66343994140625,5.841852188110352,-5.0876784324646,-6.5912370681762695
1772456000476403700,6.67340380859375,6.943184852600098,-4.730942726135254,-5.896918773651123
1772456000486429200,6.68342919921875,7.967903137207031,-5.013458251953125,-5.329493045806885
1772456000506485200,6.7034853515625,8.698134422302246,-5.884947776794434,-4.4939165115356445
1772456000516455400,6.713455322265625,8.53532886505127,-6.524199485778809,-4.292803764343262
1772456000526785500,6.72378564453125,8.212111473083496,-6.943184852600098,-4.151545524597168
1772456000546749200,6.743749267578125,7.242460250854492,-7.003039836883545,-4.606443881988525
1772456000556495000,6.7534951171875,6.801927089691162,-6.524199485778809,-4.994304656982422
1772456000567119400,6.764119384765625,5.980715751647949,-6.160281181335449,-5.453991413116455
1772456000576503600,6.773503662109375,5.137956619262695,-5.920860767364502,-6.1985883712768555
1772456000588172300,6.78517236328125,4.062960147857666,-5.671864032745361,-6.912060260772705
1772456000596526000,6.793526123046875,3.0526070594787598,-5.39174222946167,-7.5848307609558105
1772456000606533000,6.803533203125,2.1092917919158936,-4.970362663269043,-8.24084186553955
1772456000616514000,6.81351416015625,1.2186486721038818,-4.443638324737549,-8.911218643188477
1772456000626862800,6.82386279296875,0.40462008118629456,-3.950432777404785,-9.59596061706543
1772456000636508000,6.8335078125,-0.45250412821769714,-3.490746021270752,-10.393229484558105
1772456000666553300,6.86355322265625,-3.1723172664642334,-3.112462282180786,-11.863269805908203
1772456000676522200,6.873522216796875,-4.185064792633057,-3.4811692237854004,-12.229581832885742
1772456000686545700,6.883545654296875,-3.8067808151245117,-3.469198226928711,-12.24155330657959
1772456000696545800,6.8935458984375,-3.160346269607544,-3.1244332790374756,-11.999738693237305
1772456000706583000,6.9035830078125,-2.427720546722412,-2.832340717315674,-11.410765647888184
1772456000716551700,6.9135517578125,-1.6424223184585571,-2.786850690841675,-10.647014617919922
1772456000727488300,6.92448828125,-0.790086567401886,-2.940079689025879,-10.02452278137207
1772456000736581000,6.9335810546875,-0.3974374830722809,-2.8826189041137695,-9.35654067993164
1772456000749119000,6.946118896484375,0.3519476354122162,-3.222595453262329,-8.777143478393555
1772456000756631600,6.953631591796875,1.7573440074920654,-3.8977603912353516,-8.29590892791748
1772456000766646800,6.963646728515625,3.3518824577331543,-4.091690540313721,-7.838616371154785
1772456000776635100,6.97363525390625,4.845864295959473,-3.914519786834717,-7.285555839538574
1772456000786671900,6.983671875,6.308721542358398,-3.6080620288848877,-6.631938934326172
1772456000796636700,6.99363671875,7.429207801818848,-3.2800562381744385,-5.947196960449219
1772456000806646800,7.003646728515625,8.195352554321289,-3.383007049560547,-5.2672438621521
1772456000816657200,7.0136572265625,8.592789649963379,-3.641580820083618,-4.78122091293335
1772456000826992400,7.023992431640625,8.856152534484863,-4.091690540313721,-4.462791919708252
1772456000836654300,7.033654296875,8.796297073364258,-4.41969633102417,-4.271255970001221
1772456000846666500,7.04366650390625,8.561665534973145,-4.503493309020996,-4.369418144226074
1772456000856653300,7.0536533203125,8.073247909545898,-4.436455726623535,-4.5154643058776855
1772456000866688500,7.0636884765625,7.587224960327148,-4.393360137939453,-4.817133903503418
1772456000876652000,7.073652099609375,7.070077419281006,-4.242525577545166,-5.509057998657227
1772456000887279400,7.084279296875,6.100425720214844,-4.077325344085693,-6.078877925872803
1772456000908283000,7.105282958984375,4.194641590118408,-3.9432501792907715,-7.137115478515625
1772456000927011300,7.12401123046875,2.2385785579681396,-3.9456443786621094,-8.255207061767578
1772456000936701700,7.13370166015625,1.2425906658172607,-3.823540210723877,-9.224859237670898
1772456000946734300,7.143734375,-1.2761094570159912,-3.648763418197632,-11.30063247680664
1772456000956696800,7.15369677734375,-2.983175277709961,-3.73016619682312,-12.021286964416504
1772456000966711600,7.163711669921875,-4.730942726135254,-4.05817174911499,-12.174515724182129
1772456000976707600,7.17370751953125,-5.4444146156311035,-4.5394062995910645,-12.370840072631836
1772456000986755000,7.183755126953125,-5.4013190269470215,-4.663905143737793,-12.612654685974121
1772456000996713200,7.193713134765625,-5.257667064666748,-3.9887399673461914,-12.715604782104492
1772456001006719500,7.203719482421875,-4.857835292816162,-2.851494312286377,-12.679692268371582
1772456001016710100,7.213710205078125,-4.479551315307617,-1.7956513166427612,-12.509703636169434
1772456001027040300,7.224040283203125,-3.9480385780334473,-1.0103530883789062,-11.997344970703125
1772456001036702200,7.2337021484375,-3.380612850189209,-0.7326257228851318,-11.410765647888184
1772456001047320000,7.244320068359375,-2.604891538619995,-0.706289529800415,-10.81460952758789
1772456001069220400,7.266220458984375,-0.8762778043746948,-2.0231003761291504,-9.586383819580078
1772456001086757400,7.28375732421875,0.16759411990642548,-3.6798880100250244,-8.10437297821045
1772456001096758500,7.293758544921875,1.6089035272598267,-4.608838081359863,-7.558494567871094
1772456001106793000,7.30379296875,3.5697548389434814,-5.307945251464844,-6.979097843170166
1772456001116758000,7.313758056640625,5.339069843292236,-5.12119722366333,-6.53377628326416
1772456001127110000,7.32410986328125,6.63433313369751,-4.376600742340088,-6.150704383850098
1772456001136807200,7.33380712890625,7.740454196929932,-3.7421371936798096,-5.588066577911377
1772456001146813000,7.34381298828125,8.473079681396484,-3.6511576175689697,-5.027823448181152
1772456001156768000,7.35376806640625,8.736441612243652,-3.818751811981201,-4.489128112792969
1772456001166768600,7.3637685546875,8.75080680847168,-4.197035789489746,-4.225766181945801
1772456001207368400,7.404368408203125,6.813898086547852,-4.726154327392578,-6.023811340332031
1772456001216786200,7.4137861328125,5.216965675354004,-4.424484729766846,-7.4986395835876465
1772456001228770800,7.425770751953125,4.084507942199707,-4.314351558685303,-8.159439086914062
1772456001236826400,7.433826416015625,2.978386878967285,-4.259284973144531,-8.801085472106934
1772456001246832000,7.44383203125,1.8770540952682495,-4.0078935623168945,-9.615114212036133
1772456001256818000,7.45381787109375,0.7781155705451965,-3.957615375518799,-10.450690269470215
1772456001266844700,7.4638447265625,-0.3256114423274994,-3.713406801223755,-11.044452667236328
1772456001276830200,7.473830322265625,-1.656787633895874,-3.5458126068115234,-11.453861236572266
1772456001296842500,7.493842529296875,-4.929661273956299,-3.1244332790374756,-12.155362129211426
1772456001306877400,7.50387744140625,-5.451597213745117,-3.248931646347046,-13.002909660339355
1772456001327179300,7.52417919921875,-5.413290023803711,-2.0590133666992188,-13.783419609069824
1772456001346947300,7.543947265625,-5.884947776794434,-0.23702596127986908,-12.72757625579834
1772456001356915700,7.553915771484375,-5.762843608856201,0.14844051003456116,-12.428300857543945
1772456001367545300,7.56454541015625,-5.384559631347656,0.13168109953403473,-12.02607536315918
1772456001376945700,7.573945556640625,-4.55616569519043,-0.3998316824436188,-11.42752456665039
1772456001396968200,7.59396826171875,-1.778891921043396,-1.6280571222305298,-10.170568466186523
1772456001406981000,7.603981201171875,0.5961562395095825,-3.3470940589904785,-9.244012832641602
1772456001417007600,7.614007568359375,0.6440402865409851,-4.496310710906982,-7.99184513092041
1772456001427348200,7.62434814453125,2.5929205417633057,-5.602431774139404,-7.06528902053833
1772456001437022200,7.634022216796875,4.93923807144165,-5.7125654220581055,-6.447585105895996
1772456001447021000,7.64402099609375,6.670246124267578,-4.503493309020996,-6.117185115814209
1772456001457030100,7.654030029296875,7.943961143493652,-3.4380736351013184,-5.485116004943848
1772456001467074300,7.66407421875,9.21288776397705,-3.2369606494903564,-4.95120906829834
1772456001477041700,7.674041748046875,9.229647636413574,-3.9408559799194336,-3.5434184074401855
1772456001487060000,7.68406005859375,8.734047889709473,-4.5154643058776855,-3.6535518169403076
1772456001497083400,7.69408349609375,8.372523307800293,-5.085284233093262,-4.424484729766846
1772456001507115000,7.704114990234375,7.69735860824585,-5.152322292327881,-5.628767967224121
1772456001517089800,7.71408984375,6.9695210456848145,-4.982333660125732,-6.938396453857422
1772456001528018000,7.725017822265625,6.150704383850098,-4.728548526763916,-7.857769966125488
1772456001537093600,7.73409375,5.145139217376709,-4.185064792633057,-8.583212852478027
1772456001548695600,7.745695556640625,4.163516521453857,-3.840299606323242,-9.090784072875977
1772456001557075700,7.75407568359375,3.00711727142334,-3.3638534545898438,-9.765948295593262
1772456001567086000,7.764086181640625,1.5610195398330688,-2.849100112915039,-10.548852920532227
1772456001577072000,7.774072021484375,0.19871874153614044,-2.4181437492370605,-11.51850414276123
1772456001607079200,7.8040791015625,-5.145139217376709,-3.069366693496704,-12.7946138381958
1772456001617099000,7.81409912109375,-5.453991413116455,-3.5721490383148193,-13.108254432678223
1772456001627441200,7.824441162109375,-5.9304375648498535,-3.533841609954834,-13.022063255310059
1772456001637091300,7.83409130859375,-5.959167957305908,-2.583343744277954,-13.139378547668457
1772456001647093800,7.84409375,-5.8442463874816895,-1.4197616577148438,-12.928689002990723
1772456001657092400,7.85409228515625,-5.525817394256592,-0.47405192255973816,-12.559982299804688
1772456001667114500,7.864114501953125,-5.027823448181152,0.19153612852096558,-11.990161895751953
1772456001677069300,7.8740693359375,-4.28322696685791,0.33997663855552673,-11.532869338989258
1772456001687684400,7.884684326171875,-3.4404678344726562,0.0454898327589035,-10.922348022460938
1772456001697071400,7.8940712890625,-2.628833532333374,-0.28730419278144836,-10.417171478271484
1772456001717105400,7.91410546875,-0.4405331015586853,-1.8100165128707886,-9.495404243469238
1772456001737119200,7.934119140625,1.0342950820922852,-3.6296098232269287,-8.099584579467773
1772456001747161000,7.9441611328125,4.4939165115356445,-4.888959884643555,-7.017405033111572
1772456001757142800,7.954142822265625,6.04775333404541,-4.563348293304443,-6.418854713439941
1772456001767162400,7.964162353515625,7.132327079772949,-3.890577793121338,-5.9304375648498535
1772456001777161500,7.974161376953125,8.197746276855469,-3.4835634231567383,-5.240907669067383
1772456001787199200,7.98419921875,9.138668060302734,-3.4548330307006836,-4.692635536193848
1772456001797161700,7.99416162109375,9.53849983215332,-3.4979286193847656,-4.106055736541748
1772456001807188000,8.00418798828125,9.552865028381348,-3.9025487899780273,-3.670311212539673
1772456001827512600,8.0245126953125,9.342175483703613,-4.922478675842285,-3.6822822093963623
1772456001837173000,8.034173095703125,8.815450668334961,-5.370194435119629,-4.089296340942383
1772456001847796200,8.044796142578125,8.188169479370117,-5.367800235748291,-4.800374507904053
1772456001857206000,8.0542060546875,7.299921035766602,-5.1331682205200195,-5.473145008087158
1772456001868879000,8.065879150390625,6.054935932159424,-4.807557106018066,-6.167463779449463
1772456001877219600,8.074219482421874,4.795586109161377,-4.661510944366455,-7.029376029968262
1772456001887237400,8.0842373046875,3.600879430770874,-4.620809078216553,-7.9846625328063965
1772456001897235500,8.0942353515625,2.3511061668395996,-4.424484729766846,-8.995016098022461
1772456001907270100,8.104270263671875,1.1563993692398071,-4.2975921630859375,-9.93593692779541
1772456001917236500,8.114236572265625,-0.05267243832349777,-4.022258758544922,-10.881647109985352
1772456001927566000,8.124566162109375,-1.3431471586227417,-3.7636849880218506,-11.563994407653809
1772456001937258500,8.134258544921876,-2.542642116546631,-3.7469255924224854,-11.997344970703125
1772456001947318500,8.144318603515625,-3.7445313930511475,-3.7900211811065674,-12.320562362670898
1772456001957289700,8.154289794921874,-4.395754337310791,-4.07014274597168,-12.665327072143555
1772456001977315600,8.174315673828126,-4.299986362457275,-3.5865142345428467,-12.84968090057373
1772456001997346300,8.19434619140625,-3.205836057662964,-1.4867992401123047,-11.750741958618164
1772456002007984600,8.204984619140625,-2.6815059185028076,-0.5530605912208557,-11.1474027633667
1772456002017404200,8.214404052734375,-1.6496049165725708,0.05746084079146385,-10.26394271850586
1772456002030257700,8.227257568359375,-1.0965443849563599,-0.8259995579719543,-9.682151794433594
1772456002037699000,8.234698974609374,-0.9026140570640564,-1.843535304069519,-9.078812599182129
1772456002047495700,8.24449560546875,-0.31603461503982544,-3.28963303565979,-8.437167167663574
1772456002057493800,8.25449365234375,1.1444283723831177,-4.438849925994873,-7.936778545379639
1772456002067531000,8.264531005859375,3.0837318897247314,-4.970362663269043,-7.280767440795898
1772456002077507800,8.2745078125,4.934449672698975,-4.637568473815918,-6.71334171295166
1772456002087533600,8.284533447265625,6.670246124267578,-3.97916316986084,-6.064512729644775
1772456002097532200,8.2945322265625,8.090007781982422,-3.464409828186035,-5.276820659637451
1772456002107572700,8.30457275390625,9.006986618041992,-3.2609026432037354,-4.6040496826171875
1772456002117542100,8.314542236328125,9.263166427612305,-3.4524388313293457,-4.02465295791626
1772456002127867600,8.32486767578125,9.251194953918457,-4.144362926483154,-3.5027170181274414
1772456002137546200,8.334546142578125,9.030928611755371,-4.903325080871582,-3.3662476539611816
1772456002147584000,8.344583984375,8.554482460021973,-5.686229228973389,-3.3901896476745605
1772456002157545700,8.354545654296874,8.283937454223633,-6.186617374420166,-3.529053211212158
1772456002168162800,8.365162841796876,7.857769966125488,-6.335057735443115,-3.6942532062530518
1772456002177553000,8.374552978515625,7.333439826965332,-5.856217384338379,-4.01268196105957
1772456002189186300,8.386186279296876,6.660669326782227,-5.200206279754639,-4.474762916564941
1772456002197575000,8.394574951171874,5.87776517868042,-4.637568473815918,-5.279214859008789
1772456002207583700,8.404583740234376,4.759673118591309,-4.345476150512695,-6.0405707359313965
1772456002217574700,8.41457470703125,3.663128614425659,-4.137180328369141,-7.0988078117370605
1772456002227916000,8.424916015625,2.691082715988159,-4.0078935623168945,-8.470685958862305
1772456002237584600,8.434584716796875,1.6208745241165161,-3.9480385780334473,-9.703699111938477
1772456002267635700,8.4646357421875,-1.192312479019165,-3.5960910320281982,-12.442666053771973
1772456002277603800,8.474603759765625,-3.5003228187561035,-3.7229835987091064,-12.667720794677734
1772456002297633800,8.4946337890625,-4.398148536682129,-3.5434184074401855,-13.30457878112793
1772456002307671000,8.504671142578125,-4.113238334655762,-2.9520506858825684,-13.18008041381836
1772456002317638400,8.514638427734376,-3.8522706031799316,-2.1092917919158936,-12.67250919342041
1772456002328568800,8.52556884765625,-3.751713991165161,-1.403002142906189,-12.064382553100586
1772456002350185700,8.547185791015625,-2.6623523235321045,-1.6136919260025024,-10.65898609161377
1772456002357698600,8.554698486328125,-1.8291701078414917,-2.126051187515259,-9.99100399017334
1772456002367712300,8.564712158203125,-0.9241618514060974,-2.6455929279327393,-9.320627212524414
1772456002377712400,8.57471240234375,-0.40701428055763245,-3.251325845718384,-8.525752067565918
1772456002387749000,8.5847490234375,0.7829039692878723,-4.156333923339844,-7.848193168640137
1772456002407744800,8.604744873046876,4.8937482833862305,-5.370194435119629,-6.675034523010254
1772456002428125700,8.625125732421875,7.793126583099365,-4.158728122711182,-5.351040840148926
1772456002437794800,8.634794921875,8.576030731201172,-3.952826976776123,-4.73573112487793
1772456002447817200,8.644817138671876,8.860940933227539,-4.180276393890381,-4.278438568115234
1772456002457819400,8.6548193359375,8.860940933227539,-4.570530891418457,-3.9193081855773926
1772456002467857200,8.664857177734374,8.757989883422852,-5.073313236236572,-3.780444383621216
1772456002477851100,8.67485107421875,8.628703117370605,-5.3797712326049805,-3.9456443786621094
1772456002488480500,8.68548046875,8.243236541748047,-5.540182590484619,-4.266467571258545
1772456002497881600,8.694881591796875,7.706935405731201,-5.564124584197998,-4.809951305389404
1772456002509548000,8.706548095703125,6.998251438140869,-5.394136428833008,-5.360617637634277
1772456002517908000,8.714907958984375,6.102819919586182,-5.327098846435547,-5.995080947875977
1772456002528253200,8.725253173828126,5.118803024291992,-5.5114521980285645,-6.892906665802002
1772456002537958700,8.734958740234376,4.027047157287598,-5.556941986083984,-7.747636795043945
1772456002548000500,8.74500048828125,1.9273324012756348,-5.585672378540039,-9.813833236694336
1772456002557973000,8.754972900390625,0.8236053586006165,-5.171475887298584,-10.682928085327148
1772456002567999500,8.76499951171875,-0.17238251864910126,-4.766855716705322,-11.219228744506836
1772456002598035200,8.79503515625,-3.5625722408294678,-3.8762125968933105,-11.8225679397583
1772456002608056300,8.805056396484375,-4.462791919708252,-3.9863457679748535,-12.20803451538086
1772456002618049300,8.81504931640625,-4.393360137939453,-4.067748546600342,-12.60307788848877
1772456002628406000,8.825406005859374,-4.338293552398682,-3.512293815612793,-12.622231483459473
1772456002638072800,8.83507275390625,-4.175487995147705,-2.5043349266052246,-12.121843338012695
1772456002648703000,8.845702880859376,-3.869029998779297,-1.9345149993896484,-11.561599731445312
1772456002658093000,8.855093017578126,-3.35667085647583,-1.5538369417190552,-10.869675636291504
1772456002718183200,8.91518310546875,1.944091796875,-5.035006046295166,-7.407660007476807
1772456002728527400,8.92552734375,3.691859006881714,-5.406107425689697,-6.890512466430664
1772456002738221300,8.93522119140625,5.123591423034668,-4.9368438720703125,-6.471527099609375
1772456002748269300,8.945269287109374,6.485892295837402,-4.369418144226074,-5.954379558563232
1772456002758246400,8.955246337890625,7.354987621307373,-4.062960147857666,-5.506663799285889
1772456002768280600,8.965280517578124,7.955932140350342,-4.244919776916504,-5.114014625549316
1772456002788326700,8.98532666015625,8.635885238647461,-5.3582234382629395,-4.491522312164307
1772456002818353400,9.015353515625,7.9631147384643555,-5.722142219543457,-5.544970989227295
1772456002830282500,9.027282470703126,7.486668586730957,-5.477933406829834,-6.0190229415893555
1772456002838402800,9.03540283203125,6.866570472717285,-5.17626428604126,-6.517016887664795
1772456002848436500,9.0454365234375,6.078877925872803,-5.161899089813232,-7.000645637512207
1772456002858447600,9.055447509765624,5.044582843780518,-5.257667064666748,-7.513004779815674
1772456002868517000,9.06551708984375,3.885789394378662,-5.468356609344482,-8.018181800842285
1772456002878503400,9.07550341796875,2.7485435009002686,-5.518634796142578,-8.60236644744873
1772456002888531200,9.08553125,1.5634137392044067,-5.104437828063965,-9.433155059814453
1772456002898539000,9.0955390625,0.5626373887062073,-4.390965938568115,-10.096348762512207
1772456002908598500,9.1055986328125,-0.5386953949928284,-3.624821424484253,-10.584765434265137
1772456002918584600,9.11558447265625,-1.7477672100067139,-3.028665065765381,-10.8505220413208
1772456002928922400,9.12592236328125,-3.931279182434082,-3.1699230670928955,-11.02051067352295
1772456002938617600,9.13561767578125,-4.793191909790039,-4.072536945343018,-11.408370971679688
1772456002948662300,9.145662353515625,-5.056553840637207,-4.388571739196777,-11.777078628540039
1772456002958648300,9.1556484375,-5.078101634979248,-3.821146011352539,-12.030863761901855
1772456002978681900,9.175681884765625,-4.532223701477051,-1.778891921043396,-11.405977249145508
1772456002988728000,9.18572802734375,-4.163516521453857,-1.2282254695892334,-11.125855445861816
1772456002998709000,9.195708984375,-3.4572272300720215,-1.2545616626739502,-10.60152530670166
1772456003008741000,9.2057412109375,-2.736572504043579,-1.53707754611969,-10.24239444732666
1772456003048802800,9.245802734375,0.8690952062606812,-4.414907932281494,-7.781155586242676
1772456003078822700,9.27582275390625,7.805097579956055,-4.20421838760376,-5.937620162963867
1772456003088858400,9.2858583984375,8.710105895996094,-4.1156325340271,-5.434837818145752
1772456003098849300,9.295849365234375,9.167398452758789,-4.517858505249023,-5.066130638122559
1772456003118892800,9.315892822265624,9.311050415039062,-5.4252610206604,-4.793191909790039
1772456003148980000,9.34597998046875,8.17380428314209,-5.750872611999512,-5.552153587341309
1772456003158989600,9.355989501953125,7.568071365356445,-5.509057998657227,-5.839457988739014
1772456003169040000,9.366039794921875,6.617573261260986,-5.341464042663574,-6.531382083892822
1772456003179027000,9.37602685546875,5.5545477867126465,-5.018246650695801,-6.907271862030029
1772456003189060600,9.386060546875,4.436455726623535,-4.8267107009887695,-7.2113356590271
1772456003199367000,9.396366943359375,3.313575267791748,-4.532223701477051,-7.769184589385986
1772456003229489400,9.426489501953125,0.15322890877723694,-3.7852327823638916,-9.658209800720215
1772456003259233000,9.45623291015625,-4.771644115447998,-4.027047157287598,-11.006145477294922
1772456003269280000,9.466280029296875,-5.2049946784973145,-4.355052947998047,-11.559206008911133
1772456003279265300,9.476265380859376,-5.142745018005371,-4.244919776916504,-12.050017356872559
1772456003289339000,9.4863388671875,-5.037400245666504,-3.2752678394317627,-12.040440559387207
1772456003299323000,9.496322998046875,-4.821922302246094,-2.4803929328918457,-11.841721534729004
1772456003309365500,9.506365478515624,-4.666299343109131,-1.5873557329177856,-11.552022933959961
1772456003319351000,9.51635107421875,-4.079719543457031,-0.9864110946655273,-11.03248119354248
1772456003349467600,9.546467529296875,-1.4891934394836426,-1.7142484188079834,-9.832986831665039
1772456003369518000,9.56651806640625,0.19153612852096558,-2.9233202934265137,-8.731653213500977
1772456003389533200,9.586533203125,2.2361843585968018,-4.508281707763672,-7.740454196929932
1772456003399521000,9.59652099609375,4.314351558685303,-4.697423934936523,-7.386112213134766
1772456003409598700,9.6065986328125,6.0405707359313965,-3.97916316986084,-7.0317702293396
1772456003419576600,9.61657666015625,7.232883453369141,-3.138798475265503,-6.509834289550781
1772456003429938200,9.626938232421875,8.20492935180664,-2.5450363159179688,-5.95677375793457
1772456003439613400,9.636613525390626,8.520963668823242,-2.322375535964966,-5.4875102043151855
1772456003469724700,9.666724609375,8.576030731201172,-3.687070608139038,-5.403713226318359
1772456003479711700,9.676711669921875,8.176198959350586,-4.07014274597168,-5.822698593139648
1772456003489783000,9.686782958984375,7.682993412017822,-4.292803764343262,-6.426037311553955
1772456003499756500,9.696756591796875,7.146692276000977,-4.3622355461120605,-6.9024834632873535
1772456003509798000,9.7067978515625,6.452373504638672,-4.4508209228515625,-7.354987621307373
1772456003519780400,9.7167802734375,5.468356609344482,-4.347870349884033,-7.817068576812744
1772456003530152000,9.72715185546875,4.525041103363037,-3.952826976776123,-8.13789176940918
1772456003539833900,9.736833740234376,3.643975019454956,-3.7181951999664307,-8.544905662536621
1772456003569936100,9.76693603515625,0.7852981686592102,-2.8802247047424316,-10.043676376342773
1772456003579912000,9.776911865234375,-2.0901381969451904,-2.0925323963165283,-10.639832496643066
1772456003589961500,9.78696142578125,-4.486733913421631,-2.1284453868865967,-10.900800704956055
1772456003610024200,9.807024169921876,-5.588066577911377,-3.665522813796997,-12.121843338012695
1772456003620030000,9.817030029296875,-5.568912982940674,-3.378218650817871,-12.497733116149902
1772456003630390800,9.827390869140626,-5.57370138168335,-2.4420857429504395,-12.140996932983398
1772456003640092000,9.837091796875,-5.724536418914795,-1.5298948287963867,-11.803414344787598
1772456003650151400,9.8471513671875,-5.549759387969971,-0.6488286852836609,-11.762712478637695
1772456003670174000,9.867174072265625,-4.738125324249268,-0.40222588181495667,-11.51611042022705
1772456003690243600,9.88724365234375,-2.647987127304077,-1.2713210582733154,-10.374075889587402
1772456003700232700,9.897232666015626,-0.8427590131759644,-1.944091796875,-9.8784761428833
1772456003710271000,9.90727099609375,0.11013327538967133,-2.7006595134735107,-9.260771751403809
1772456003740344800,9.9373447265625,3.8091750144958496,-4.46518611907959,-7.659051418304443
1772456003750385700,9.9473857421875,5.43723201751709,-3.687070608139038,-7.259219646453857
1772456003760397800,9.957397705078124,6.607996463775635,-2.7748796939849854,-6.868964672088623
1772456003770457300,9.967457275390625,7.5968017578125,-2.537853717803955,-6.2632317543029785
1772456003780458500,9.97745849609375,7.939172744750977,-2.7676970958709717,-5.748478412628174
1772456003790489300,9.9874892578125,8.092401504516602,-3.3662476539611816,-5.39174222946167
1772456003800493800,9.997493896484375,8.394071578979492,-4.2329487800598145,-5.262455463409424
1772456003810543000,10.007543212890624,8.520963668823242,-4.807557106018066,-5.319916248321533
1772456003820523500,10.0175234375,8.463502883911133,-4.989516258239746,-5.535394191741943
1772456003830865000,10.027864990234375,8.238448143005371,-4.551377296447754,-5.954379558563232
1772456003840560000,10.03756005859375,7.010222434997559,-3.861847400665283,-7.003039836883545
1772456003850611500,10.047611572265625,6.030993938446045,-3.627215623855591,-7.486668586730957
1772456003860598800,10.057598876953126,4.970362663269043,-3.2752678394317627,-7.793126583099365
1772456003870620700,10.06762060546875,3.909731388092041,-3.1316158771514893,-8.274360656738281
1772456003880631800,10.0776318359375,2.913743495941162,-3.222595453262329,-8.858546257019043
1772456003890679300,10.08767919921875,1.8770540952682495,-3.0166940689086914,-9.643844604492188
1772456003900662000,10.097662109375,0.7158663272857666,-2.8179752826690674,-10.400412559509277
1772456003910690300,10.107690185546875,-0.8906430602073669,-2.5258827209472656,-10.986991882324219
1772456003920684800,10.117684814453124,-3.265691041946411,-2.389413356781006,-11.341333389282227
1772456003931050500,10.128050537109376,-6.021417140960693,-2.7293899059295654,-11.578359603881836
1772456003940725000,10.13772509765625,-6.339846134185791,-3.914519786834717,-12.2990140914917
1772456003950746600,10.14774658203125,-6.090848922729492,-4.311957359313965,-12.876016616821289
1772456003960739800,10.15773974609375,-6.370970726013184,-3.315969467163086,-12.667720794677734
1772456003971080200,10.168080078125,-6.3949127197265625,-1.9345149993896484,-12.33253288269043
1772456003980781300,10.17778125,-6.303933143615723,-0.8547300100326538,-11.96861457824707
1772456003990802200,10.18780224609375,-6.004657745361328,-0.2585737705230713,-11.851298332214355
1772456004000793000,10.19779296875,-5.559336185455322,0.12928688526153564,-11.616666793823242
1772456004010836700,10.207836669921875,-4.7189717292785645,0.2106897532939911,-11.209651947021484
1772456004020852500,10.2178525390625,-3.8091750144958496,0.07182604819536209,-10.723628997802734
1772456004031186000,10.22818603515625,-2.9089550971984863,-0.1628057211637497,-10.168174743652344
1772456004040866300,10.2378662109375,-1.9345149993896484,-0.6200982332229614,-9.68694019317627
1772456004050912300,10.247912353515625,0.10773907601833344,-1.647210717201233,-9.454702377319336
1772456004060885200,10.25788525390625,0.912190854549408,-2.736572504043579,-8.760383605957031
1772456004070909700,10.26790966796875,1.0797849893569946,-3.383007049560547,-8.142680168151855
1772456004080898600,10.277898681640625,2.9975404739379883,-4.084507942199707,-7.82185697555542
1772456004100917500,10.29791748046875,8.008605003356934,-2.6408045291900635,-7.091625213623047
1772456004110934800,10.307934814453125,8.834604263305664,-2.229001760482788,-6.6846113204956055
1772456004120927500,10.317927490234375,9.607931137084961,-2.454056739807129,-6.337451934814453
1772456004131303000,10.328302978515625,9.849745750427246,-2.9017724990844727,-5.925649166107178
1772456004140976600,10.3379765625,9.694122314453125,-3.406949043273926,-5.9304375648498535
1772456004150977300,10.347977294921876,9.294290542602539,-3.8810009956359863,-6.287173748016357
1772456004160967200,10.35796728515625,8.743624687194824,-4.266467571258545,-6.655880928039551
1772456004171024600,10.368024658203124,7.793126583099365,-4.034229755401611,-7.144298076629639
1772456004181003300,10.378003173828125,6.801927089691162,-3.7445313930511475,-7.682993412017822
1772456004201035800,10.398035888671876,4.412513732910156,-3.2800562381744385,-8.559270858764648
1772456004211092000,10.408092041015625,3.3446998596191406,-3.0310592651367188,-8.827422142028809
1772456004221075000,10.418074951171874,2.4157495498657227,-2.6815059185028076,-9.133879661560059
1772456004231403300,10.4284033203125,1.4867992401123047,-2.3989901542663574,-9.543288230895996
1772456004241081000,10.4380810546875,0.3471592366695404,-2.056619167327881,-9.890447616577148
1772456004251129900,10.4481298828125,-1.414973258972168,-1.800439715385437,-10.170568466186523
1772456004261118000,10.458117919921875,-3.7708675861358643,-1.7980455160140991,-10.345345497131348
1772456004271136800,10.46813671875,-4.975151062011719,-2.580949544906616,-10.891223907470703
1772456004281150500,10.478150390625,-4.941632270812988,-3.0573954582214355,-11.753135681152344
1772456004291200800,10.48820068359375,-5.688623428344727,-2.846705913543701,-12.310985565185547
1772456004311187700,10.508187744140624,-6.648698329925537,-0.7493851184844971,-12.198457717895508
1772456004321166800,10.518166748046875,-6.9240312576293945,0.11013327538967133,-11.97100830078125
1772456004332134000,10.5291337890625,-6.8162922859191895,0.5841852426528931,-11.932701110839844
1772456004341216500,10.538216552734376,-6.347028732299805,0.871489405632019,-11.81299114227295
1772456004352870400,10.549870361328125,-5.506663799285889,0.667982280254364,-11.401188850402832
1772456004361220000,10.55822021484375,-3.7421371936798096,-0.3902548849582672,-10.362105369567871
1772456004371249000,10.568248779296875,-2.6408045291900635,-1.0342950820922852,-9.895236015319824
1772456004381204000,10.578203857421874,-0.9959878921508789,-1.8291701078414917,-9.512163162231445
1772456004391223800,10.588223876953125,1.4484920501708984,-3.0550012588500977,-9.045293807983398
1772456004401186000,10.59818603515625,1.161187767982483,-3.7924153804779053,-8.128314971923828
1772456004421225700,10.618225830078124,5.489904403686523,-5.037400245666504,-7.141903877258301
1772456004431569200,10.628569091796875,7.309497833251953,-3.914519786834717,-6.988674640655518
1772456004441242000,10.6382421875,8.619126319885254,-2.5091233253479004,-6.931213855743408
1772456004451275500,10.648275634765625,9.536105155944824,-1.889025092124939,-6.636727333068848
1772456004461232400,10.658232421875,10.012551307678223,-1.9967641830444336,-6.356605529785156
1772456004471258400,10.66825830078125,10.192116737365723,-2.497152328491211,-6.165069580078125
1772456004481225200,10.67822509765625,9.619902610778809,-2.782062292098999,-6.205770969390869
1772456004491890200,10.68889013671875,9.337387084960938,-3.141192674636841,-6.636727333068848
1772456004501579000,10.6985791015625,8.825027465820312,-3.7181951999664307,-6.9910688400268555
1772456004513782300,10.7107822265625,8.157045364379883,-3.909731388092041,-7.424419403076172
1772456004521279200,10.718279296875,7.338228225708008,-3.825934410095215,-7.7428483963012695
1772456004531638000,10.728637939453124,6.445190906524658,-3.7397429943084717,-8.044517517089844
1772456004541279500,10.738279541015626,5.303156852722168,-3.49314022064209,-8.33182144165039
1772456004551324700,10.74832470703125,4.256890773773193,-3.423708438873291,-8.633491516113281
1772456004561296400,10.75829638671875,3.205836057662964,-3.4572272300720215,-9.057265281677246
1772456004571355400,10.76835546875,2.2170307636260986,-3.4524388313293457,-9.516951560974121
1772456004581309400,10.778309326171875,0.7852981686592102,-3.3854012489318848,-9.93354320526123
1772456004591334700,10.788334716796875,-1.290474772453308,-3.4308910369873047,-10.031704902648926
1772456004601301800,10.7983017578125,-4.182670593261719,-3.5003228187561035,-10.199298858642578
1772456004611341600,10.808341552734374,-5.664681434631348,-4.151545524597168,-10.824186325073242
1772456004621289500,10.81828955078125,-6.2392897605896,-4.599261283874512,-11.590330123901367
1772456004631623700,10.828623779296874,-6.165069580078125,-3.4763808250427246,-11.604695320129395
1772456004641284000,10.8382841796875,-6.311115741729736,-2.535459518432617,-11.140220642089844
1772456004651954200,10.8489541015625,-6.234501361846924,-1.742978811264038,-10.821791648864746
1772456004661300200,10.85830029296875,-5.861005783081055,-1.0295066833496094,-10.611102104187012
1772456004672962300,10.86996240234375,-5.274426460266113,-0.3926490843296051,-10.453084945678711
1772456004681298000,10.8782978515625,-4.443638324737549,-0.019153613597154617,-10.029311180114746
1772456004691345000,10.888344970703125,-3.3303346633911133,-0.24660277366638184,-9.385271072387695
1772456004701316400,10.89831640625,-1.8962076902389526,-0.7972691655158997,-8.81784439086914
1772456004711330600,10.90833056640625,0.40222588181495667,-1.9393033981323242,-8.293514251708984
1772456004721282600,10.918282470703126,0.5578489899635315,-3.0573954582214355,-7.580042362213135
1772456004741273300,10.9382734375,4.443638324737549,-5.403713226318359,-6.572083473205566
1772456004751302000,10.948302001953126,7.0988078117370605,-5.123591423034668,-6.186617374420166
1772456004761264400,10.958264404296875,9.042900085449219,-3.5745432376861572,-6.0405707359313965
1772456004771307000,10.96830712890625,10.663774490356445,-2.5498247146606445,-5.6910176277160645
1772456004781253400,10.97825341796875,11.470620155334473,-2.296039342880249,-5.310339450836182
1772456004791288600,10.98828857421875,11.475408554077148,-2.3989901542663574,-4.8937482833862305
1772456004801251600,10.99825146484375,11.046846389770508,-3.0526070594787598,-4.843470096588135
1772456004811905800,11.00890576171875,10.505757331848145,-3.56017804145813,-5.099649429321289
1772456004821268700,11.018268798828124,9.923966407775879,-3.9480385780334473,-5.640739440917969
1772456004851341300,11.04834130859375,8.054094314575195,-4.400542736053467,-7.117961883544922
1772456004861289500,11.05828955078125,6.806715488433838,-4.6040496826171875,-7.297526836395264
1772456004871312000,11.068311767578125,4.970362663269043,-4.422090530395508,-7.845798969268799
1772456004881279200,11.078279296875,3.19865345954895,-4.355052947998047,-8.346187591552734
1772456004891319600,11.088319580078124,1.335964560508728,-4.110844135284424,-8.554482460021973
1772456004901258800,11.0982587890625,-0.5315127968788147,-3.756502389907837,-8.923190116882324
1772456004911277300,11.10827734375,-6.141127586364746,-4.034229755401611,-10.02452278137207
1772456004921240600,11.118240478515625,-7.182605266571045,-5.272032260894775,-10.72602367401123
1772456004931589400,11.12858935546875,-7.86734676361084,-6.224924564361572,-11.295844078063965
1772456004951281400,11.148281494140624,-8.01339340209961,-4.6471452713012695,-11.113883972167969
1772456004961246700,11.158246826171874,-7.15387487411499,-3.205836057662964,-10.848128318786621
1772456004971900400,11.168900390625,-6.291962146759033,-2.2601263523101807,-10.72602367401123
1772456004981236500,11.178236572265625,-5.434837818145752,-2.0614075660705566,-10.565611839294434
1772456004992861200,11.189861083984376,-4.309563159942627,-2.1954829692840576,-10.259154319763184
1772456005001247200,11.198247314453125,-3.095702886581421,-2.583343744277954,-9.749189376831055
1772456005011280400,11.2082802734375,-1.900996208190918,-3.1675288677215576,-9.239224433898926
1772456005021227500,11.2182275390625,-0.7110779285430908,-3.995922565460205,-8.619126319885254
1772456005031561000,11.22856103515625,-0.28969839215278625,-4.438849925994873,-8.085219383239746
1772456005041228800,11.238228759765626,0.8427590131759644,-5.1331682205200195,-7.632715225219727
1772456005051264300,11.24826416015625,2.937685489654541,-5.849034786224365,-7.338228225708008
1772456005061218600,11.258218505859375,4.975151062011719,-5.736507415771484,-7.187393665313721
1772456005071246000,11.26824609375,6.938396453857422,-4.838681697845459,-7.0126166343688965
1772456005081300000,11.278300048828125,8.394071578979492,-3.6774938106536865,-6.809109687805176
1772456005091274500,11.2882744140625,9.210494041442871,-2.9903578758239746,-6.493074893951416
1772456005101226200,11.298226318359376,9.533711433410645,-3.1196448802948,-6.066906929016113
1772456005111254800,11.3082548828125,9.682151794433594,-3.5889084339141846,-5.722142219543457
1772456005121235200,11.318235107421875,9.296685218811035,-3.7828385829925537,-5.856217384338379
1772456005132215300,11.32921533203125,9.157821655273438,-4.141968727111816,-5.875370979309082
1772456005141257000,11.338257080078124,8.978256225585938,-4.441244125366211,-6.050147533416748
1772456005153790200,11.350790283203125,8.413225173950195,-4.3861775398254395,-6.167463779449463
1772456005161292500,11.35829248046875,7.869740962982178,-4.321534156799316,-6.4834980964660645
1772456005171339000,11.368339111328124,7.048529624938965,-4.242525577545166,-6.840234279632568
1772456005181289200,11.378289306640625,4.90571928024292,-4.216189384460449,-7.462726593017578
1772456005191320000,11.388320068359375,3.84269380569458,-4.388571739196777,-7.740454196929932
1772456005201300000,11.398300048828125,2.87064790725708,-4.637568473815918,-7.8745293617248535
1772456005211355600,11.408355712890625,1.6304513216018677,-4.975151062011719,-8.087613105773926
1772456005221339400,11.41833935546875,0.6368576288223267,-5.092466831207275,-8.216899871826172
1772456005231692000,11.428692138671876,-1.0438719987869263,-5.130774021148682,-8.307879447937012
1772456005241364000,11.438364013671874,-3.1316158771514893,-5.367800235748291,-8.506598472595215
1772456005251421400,11.44842138671875,-5.461174011230469,-5.726930618286133,-8.83699893951416
1772456005261387300,11.45838720703125,-5.8442463874816895,-6.495469093322754,-9.488221168518066
1772456005271420000,11.468419921875,-6.473921298980713,-6.167463779449463,-10.412383079528809
1772456005281411800,11.478411865234374,-6.315904140472412,-4.946420669555664,-10.855310440063477
1772456005292068000,11.489068115234375,-5.693411827087402,-3.5745432376861572,-10.958261489868164
1772456005301421300,11.49842138671875,-5.501875400543213,-2.427720546722412,-10.87446403503418
1772456005313091800,11.510091796875,-5.336675643920898,-1.9560627937316895,-10.781089782714844
1772456005321474300,11.518474365234376,-4.819528102874756,-1.7764976024627686,-10.647014617919922
1772456005331813400,11.5288134765625,-4.520252704620361,-1.9297266006469727,-10.498574256896973
1772456005341485300,11.5384853515625,-3.713406801223755,-2.410961151123047,-10.17296314239502
1772456005351520300,11.548520263671875,-2.580949544906616,-3.4572272300720215,-9.744400978088379
1772456005361511000,11.558510986328125,-0.9528923034667969,-4.819528102874756,-9.174580574035645
1772456005371590700,11.568590576171875,0.26575639843940735,-5.947196960449219,-8.724471092224121
1772456005381557500,11.5785576171875,0.6440402865409851,-6.167463779449463,-8.236053466796875
1772456005391587800,11.588587890625,2.5115175247192383,-7.082048416137695,-7.491456985473633
1772456005401576700,11.59857666015625,5.0254292488098145,-7.194576263427734,-7.19936466217041
1772456005411621600,11.60862158203125,7.436390399932861,-5.655104637145996,-7.158663272857666
1772456005421589500,11.618589599609376,9.627084732055664,-4.1611223220825195,-6.9240312576293945
1772456005431930600,11.6289306640625,11.118672370910645,-3.1028854846954346,-6.629544734954834
1772456005441606700,11.638606689453125,11.27190113067627,-2.8107926845550537,-5.4444146156311035
1772456005452272400,11.6492724609375,10.54406452178955,-3.622427225112915,-5.463568210601807
1772456005461620500,11.658620361328126,9.787496566772461,-4.469974517822266,-5.961562156677246
1772456005474164000,11.6711640625,8.753201484680176,-4.505887508392334,-6.45476770401001
1772456005481683700,11.67868359375,7.690176010131836,-4.580107688903809,-6.722918510437012
1772456005491728600,11.688728759765626,6.72531270980835,-4.553771495819092,-7.058106422424316
1772456005501684000,11.69868408203125,5.6191911697387695,-4.644751071929932,-7.398083209991455
1772456005511715800,11.7087158203125,4.774038314819336,-4.592078685760498,-7.692570209503174
1772456005521697500,11.718697509765626,3.9647979736328125,-4.529829502105713,-8.101978302001953
1772456005532048600,11.729048583984374,3.2561142444610596,-4.627991676330566,-8.485051155090332
1772456005541698000,11.738697998046876,1.8052281141281128,-4.6040496826171875,-8.671798706054688
1772456005551725800,11.748725830078126,-0.11013327538967133,-4.616020679473877,-8.803479194641113
1772456005561702700,11.75870263671875,-2.913743495941162,-4.874594688415527,-8.760383605957031
1772456005571752400,11.76875244140625,-5.044582843780518,-5.413290023803711,-9.402029991149902
1772456005581718300,11.77871826171875,-6.44279670715332,-6.722918510437012,-9.792284965515137
1772456005591755000,11.788755126953125,-6.797138690948486,-7.105990409851074,-10.496180534362793
1772456005601735400,11.7987353515625,-7.036558628082275,-6.536170482635498,-10.821791648864746
1772456005612421000,11.809421142578126,-7.060500621795654,-5.413290023803711,-10.922348022460938
1772456005621790500,11.81879052734375,-6.998251438140869,-4.223371982574463,-10.793061256408691
1772456005633713200,11.830713134765626,-6.828263282775879,-3.098097085952759,-10.721235275268555
1772456005641824500,11.838824462890624,-6.490680694580078,-2.298433542251587,-10.92953109741211
1772456005651872300,11.848872314453125,-5.880159378051758,-1.8363527059555054,-10.824186325073242
1772456005661838300,11.85883837890625,-5.0014872550964355,-2.0446481704711914,-10.5344877243042
1772456005671866000,11.8688662109375,-3.536235809326172,-2.719813108444214,-9.888052940368652
1772456005681852200,11.87885205078125,-1.680729627609253,-3.646369218826294,-9.349357604980469
1772456005691891200,11.88889111328125,-0.040701430290937424,-4.548983097076416,-8.738836288452148
1772456005701849900,11.898849853515625,0.4668693244457245,-4.98472785949707,-8.034940719604492
1772456005711886000,11.908885986328125,3.9480385780334473,-6.552929878234863,-6.746860504150391
1772456005721863000,11.91886279296875,6.907271862030029,-5.679046630859375,-6.6127848625183105
1772456005732220400,11.929220458984375,9.344569206237793,-3.7445313930511475,-6.519411087036133
1772456005741877000,11.938876953125,10.711658477783203,-2.279279947280884,-6.095637321472168
1772456005751917000,11.9489169921875,11.257535934448242,-1.867477297782898,-5.52821159362793
1772456005761910300,11.95891015625,11.240777015686035,-2.248155355453491,-5.130774021148682
1772456005772576000,11.969575927734375,10.797849655151367,-2.7509377002716064,-4.903325080871582
1772456005781923000,11.978923095703125,9.974244117736816,-3.5458126068115234,-5.140350818634033
1772456005794455000,11.991455078125,9.445125579833984,-4.199429988861084,-5.583278179168701
1772456005801953800,11.998953857421874,8.554482460021973,-4.446032524108887,-6.030993938446045
1772456005812049000,12.009048828125,7.802703380584717,-4.7620673179626465,-6.555324077606201
1772456005821974800,12.018974853515624,6.610390663146973,-4.757278919219971,-7.058106422424316
1772456005832321800,12.02932177734375,5.657498836517334,-4.994304656982422,-7.38132381439209
1772456005841991700,12.03899169921875,4.6734819412231445,-4.819528102874756,-7.960720539093018
1772456005852061000,12.04906103515625,3.84269380569458,-4.541800498962402,-8.508993148803711
1772456005862013200,12.05901318359375,3.0861260890960693,-4.426878929138184,-8.880094528198242
1772456005872022300,12.069022216796874,2.1811177730560303,-4.458003520965576,-8.93037223815918
1772456005882003500,12.07900341796875,0.8834604024887085,-4.49870491027832,-8.96389102935791
1772456005892031200,12.08903125,-1.0630255937576294,-4.376600742340088,-9.042900085449219
1772456005902021000,12.099021240234375,-4.134786128997803,-4.4723687171936035,-9.287108421325684
1772456005912031000,12.109031005859375,-5.6670756340026855,-5.47075080871582,-9.840168952941895
1772456005922018600,12.1190185546875,-6.1985883712768555,-5.906495571136475,-10.520122528076172
1772456005932968200,12.12996826171875,-6.4595561027526855,-5.674258232116699,-11.0300874710083
1772456005942016300,12.139016357421875,-6.222530364990234,-4.90571928024292,-11.013327598571777
1772456005953660400,12.150660400390626,-5.916072368621826,-3.957615375518799,-10.821791648864746
1772456005962008300,12.15900830078125,-5.5545477867126465,-3.1076738834381104,-10.632649421691895
1772456005972027600,12.169027587890625,-5.386953830718994,-2.2697031497955322,-10.486603736877441
1772456005981986300,12.178986328125,-4.565742492675781,-1.5107412338256836,-10.287884712219238
1772456005991983600,12.188983642578124,-3.5673606395721436,-1.7190368175506592,-9.95748519897461
1772456006011989800,12.20898974609375,-0.2968810200691223,-3.28963303565979,-8.860940933227539
1772456006021977900,12.218977783203124,0.5386953949928284,-3.9815573692321777,-8.24084186553955
1772456006032294100,12.229294189453125,1.015141487121582,-4.558559894561768,-7.6111674308776855
1772456006041963800,12.2389638671875,3.44765043258667,-5.92325496673584,-7.175422668457031
1772456006051995600,12.24899560546875,6.1052141189575195,-6.210559368133545,-6.746860504150391
1772456006061959200,12.258959228515625,8.20492935180664,-4.910507678985596,-6.445190906524658
1772456006071967500,12.268967529296875,10.036493301391602,-3.665522813796997,-5.954379558563232
1772456006081939200,12.278939208984376,11.159374237060547,-3.1004912853240967,-5.602431774139404
1772456006092583400,12.28958349609375,11.48259162902832,-2.8826189041137695,-5.257667064666748
1772456006101974800,12.298974853515626,11.080365180969238,-2.980781078338623,-4.953603267669678
1772456006114485200,12.3114853515625,10.429142951965332,-3.2848446369171143,-4.934449672698975
1772456006121991400,12.318991455078125,9.854534149169922,-3.622427225112915,-5.1595048904418945
1772456006132333000,12.3293330078125,9.344569206237793,-4.022258758544922,-5.497087001800537
1772456006142029300,12.339029296875,8.908824920654297,-4.082113742828369,-5.937620162963867
1772456006152039000,12.349038818359375,7.955932140350342,-3.8067808151245117,-6.375759124755859
1772456006162037000,12.359037109375,7.1706342697143555,-3.885789394378662,-6.768408298492432
1772456006172059100,12.36905908203125,6.042964935302734,-3.9456443786621094,-7.158663272857666
1772456006182031400,12.37903125,4.865017890930176,-4.182670593261719,-7.522581577301025
1772456006192048000,12.389048095703124,3.845088005065918,-4.446032524108887,-7.934384346008301
1772456006202037500,12.39903759765625,2.9448680877685547,-4.685452938079834,-8.372523307800293
1772456006212060000,12.409059814453125,1.6711528301239014,-4.786009311676025,-8.655038833618164
1772456006222019600,12.41901953125,0.3064578175544739,-4.69024133682251,-8.846575736999512
1772456006232336600,12.429336669921875,-1.525106430053711,-4.862623691558838,-9.129091262817383
1772456006242018600,12.4390185546875,-3.957615375518799,-5.070919036865234,-9.469067573547363
1772456006252650500,12.449650390625,-5.7772088050842285,-6.222530364990234,-10.663774490356445
1772456006262015200,12.45901513671875,-6.3302693367004395,-5.932831764221191,-11.166556358337402
1772456006273621800,12.470621826171875,-6.3973069190979,-5.307945251464844,-11.310209274291992
1772456006292064300,12.489064208984376,-5.789179801940918,-3.397372245788574,-11.192893028259277
1772456006302019000,12.49901904296875,-5.303156852722168,-2.3271639347076416,-11.006145477294922
1772456006312021500,12.509021484375,-4.532223701477051,-1.525106430053711,-10.857705116271973
1772456006322008600,12.519008544921874,-3.624821424484253,-1.434126853942871,-10.618284225463867
1772456006332337700,12.529337646484375,-2.631227731704712,-1.7142484188079834,-10.1753568649292
1772456006342018600,12.5390185546875,-1.1540051698684692,-2.5522189140319824,-9.761159896850586
1772456006352021000,12.54902099609375,-0.2346317619085312,-3.220201253890991,-9.162610054016113
1772456006362004500,12.55900439453125,-0.12928688526153564,-3.8522706031799316,-8.49941635131836
1772456006372022000,12.56902197265625,1.7046716213226318,-4.934449672698975,-7.994239330291748
1772456006381992000,12.578991943359375,4.175487995147705,-5.849034786224365,-7.457938194274902
1772456006391990300,12.588990234375,6.605602264404297,-5.20978307723999,-7.017405033111572
1772456006401992000,12.598991943359374,8.279149055480957,-3.399766445159912,-6.600813865661621
1772456006412656400,12.609656494140625,9.59596061706543,-2.054224967956543,-6.0836663246154785
1772456006422027000,12.619027099609376,10.309432983398438,-1.5083470344543457,-5.702988624572754
1772456006442052600,12.639052490234375,10.843339920043945,-2.319981336593628,-4.93923807144165
1772456006452075000,12.649074951171874,10.321403503417969,-2.942473888397217,-4.910507678985596
1772456006462032400,12.659032470703124,9.84495735168457,-3.7397429943084717,-5.185841083526611
1772456006472033500,12.669033447265624,9.327810287475586,-4.335899353027344,-5.595249176025391
1772456006482035700,12.67903564453125,8.669404029846191,-4.479551315307617,-6.054935932159424
1772456006492052700,12.689052734375,8.044517517089844,-4.426878929138184,-6.631938934326172
1772456006502017800,12.699017822265626,7.144298076629639,-4.367023944854736,-7.161057472229004
1772456006512017200,12.70901708984375,6.172252178192139,-4.10366153717041,-7.443572998046875
1772456006522004700,12.719004638671874,3.8977603912353516,-4.347870349884033,-8.094796180725098
1772456006532345600,12.729345703125,2.8443117141723633,-4.359841346740723,-8.619126319885254
1772456006562058000,12.75905810546875,-0.42616790533065796,-4.311957359313965,-9.615114212036133
1772456006572683500,12.76968359375,-1.9919757843017578,-4.721365928649902,-9.72285270690918
1772456006582051800,12.7790517578125,-3.797203779220581,-5.475539207458496,-9.725247383117676
1772456006593695200,12.7906953125,-4.733336925506592,-6.689399719238281,-10.120290756225586
1772456006602055200,12.79905517578125,-4.838681697845459,-6.943184852600098,-10.78587818145752
1772456006612073500,12.809073486328124,-5.185841083526611,-6.14831018447876,-10.927136421203613
1772456006622030300,12.8190302734375,-5.233725070953369,-5.035006046295166,-10.87446403503418
1772456006632341000,12.829341064453125,-5.020640850067139,-4.031835556030273,-10.735600471496582
1772456006652045000,12.849045166015625,-4.750096321105957,-2.6168625354766846,-10.522516250610352
1772456006662012400,12.859012451171875,-4.462791919708252,-2.205059766769409,-10.213664054870605
1772456006672029000,12.86902880859375,-3.885789394378662,-2.097320795059204,-10.010157585144043
1772456006682035500,12.879035400390626,-3.378218650817871,-2.1523873805999756,-9.677363395690918
1772456006692056000,12.88905615234375,-2.8227639198303223,-2.22660756111145,-9.409213066101074
1772456006702021600,12.899021728515624,-1.9153614044189453,-2.6815059185028076,-9.153033256530762
1772456006712026400,12.9090263671875,-0.7637503147125244,-3.421314239501953,-8.848969459533691
1772456006722035700,12.91903564453125,-0.24181437492370605,-3.950432777404785,-8.33182144165039
1772456006732982500,12.929982421875,0.2777273952960968,-4.587290287017822,-7.6782050132751465
1772456006742038000,12.9390380859375,2.360682964324951,-5.947196960449219,-7.0988078117370605
1772456006754539500,12.95153955078125,4.7189717292785645,-6.246472358703613,-6.610390663146973
1772456006762063400,12.9590634765625,7.208941459655762,-4.881777286529541,-6.268020153045654
1772456006772105000,12.96910498046875,9.011775016784668,-3.184288263320923,-5.975927352905273
1772456006782068500,12.979068359375,10.678139686584473,-2.1116859912872314,-5.60722017288208
1772456006792077300,12.989077392578125,11.88002872467041,-2.118868589401245,-4.991910457611084
1772456006802057500,12.999057373046876,11.508927345275879,-2.3774423599243164,-5.020640850067139
1772456006812081400,13.009081298828125,10.596736907958984,-2.7676970958709717,-5.288791656494141
1772456006822073300,13.0190732421875,9.818621635437012,-3.1220390796661377,-5.75326681137085
1772456006832391700,13.0293916015625,8.911218643188477,-3.177105665206909,-6.102819919586182
1772456006842057500,13.039057373046875,8.01339340209961,-3.4117374420166016,-6.375759124755859
1772456006852079900,13.049079833984376,7.01979923248291,-3.3901896476745605,-6.964732646942139
1772456006872051000,13.069051025390625,4.819528102874756,-3.1244332790374756,-8.128314971923828
1772456006882037000,13.079037109375,3.670311212539673,-3.0813376903533936,-8.310274124145508
1772456006892688400,13.0896884765625,2.5665841102600098,-2.9903578758239746,-8.616731643676758
1772456006902037000,13.099037109375,1.867477297782898,-2.913743495941162,-8.71728801727295
1772456006913643000,13.11064306640625,0.6129156351089478,-3.0358476638793945,-8.844181060791016
1772456006922047200,13.119047119140625,-1.316810965538025,-3.4811692237854004,-9.033323287963867
1772456006932373200,13.129373291015625,-3.5697548389434814,-4.235342979431152,-9.188945770263672
1772456006942022400,13.1390224609375,-5.118803024291992,-4.685452938079834,-9.648633003234863
1772456006952022800,13.149022705078124,-5.789179801940918,-5.284003257751465,-10.010157585144043
1772456006972057900,13.169057861328126,-5.815515995025635,-4.185064792633057,-10.893617630004883
1772456006982021400,13.179021484375,-5.995080947875977,-3.5027170181274414,-11.092336654663086
1772456006992025000,13.189025146484376,-5.978321552276611,-2.9520506858825684,-11.283872604370117
1772456007001998600,13.19899853515625,-5.736507415771484,-2.432508945465088,-11.461043357849121
1772456007012024600,13.209024658203125,-5.367800235748291,-1.7956513166427612,-11.432312965393066
1772456007021976300,13.218976318359376,-4.98472785949707,-1.2425906658172607,-11.370063781738281
1772456007032287000,13.229286865234375,-4.177882194519043,-0.9481038451194763,-11.08994197845459
1772456007041947100,13.238947021484375,-2.913743495941162,-1.1803414821624756,-10.807426452636719
1772456007052576300,13.249576171875,-1.3503297567367554,-1.8842366933822632,-10.268731117248535
1772456007061954800,13.258954833984374,-0.002394201699644327,-2.631227731704712,-9.799467086791992
1772456007081992000,13.278991943359374,3.6750996112823486,-4.393360137939453,-8.269572257995605
1772456007092010500,13.289010498046874,5.918466567993164,-4.201824188232422,-8.073247909545898
1772456007101979600,13.298979736328125,7.515398979187012,-3.181894063949585,-7.754819393157959
1772456007112007700,13.309007568359375,8.844181060791016,-2.6216509342193604,-7.218518257141113
1772456007121975300,13.318975341796875,9.895236015319824,-2.432508945465088,-6.253654956817627
1772456007132320500,13.329320556640624,10.333374977111816,-2.647987127304077,-5.57370138168335
1772456007141979100,13.338979248046876,10.230423927307129,-2.786850690841675,-5.130774021148682
1772456007151974000,13.348973876953124,9.68933391571045,-3.0765492916107178,-4.867412090301514
1772456007161991200,13.3589912109375,9.346963882446289,-3.3925838470458984,-5.0469770431518555
1772456007172009200,13.36900927734375,8.724471092224121,-3.2561142444610596,-5.722142219543457
1772456007191965000,13.38896484375,7.038952827453613,-2.940079689025879,-6.677428722381592
1772456007201947600,13.39894775390625,6.016628742218018,-2.875436305999756,-7.026981830596924
1772456007212587800,13.409587890625,4.845864295959473,-2.6623523235321045,-7.417236804962158
1772456007221954300,13.418954345703124,3.8115692138671875,-2.4229321479797363,-7.718906402587891
1772456007233893000,13.43089306640625,2.5737667083740234,-2.3535003662109375,-8.111555099487305
1772456007241959400,13.43895947265625,1.678335428237915,-2.27209734916687,-8.516175270080566
1772456007251998700,13.448998779296875,0.6488286852836609,-2.140416383743286,-9.155426979064941
1772456007261951700,13.45895166015625,-0.5291185975074768,-1.8818424940109253,-9.792284965515137
1772456007271952600,13.46895263671875,-2.5019407272338867,-1.8387469053268433,-10.228029251098633
1772456007281927000,13.478927001953124,-4.824316501617432,-1.9249382019042969,-10.651803016662598
1772456007291957800,13.488957763671875,-5.655104637145996,-2.806004285812378,-11.523292541503906
1772456007301932500,13.4989326171875,-6.320692539215088,-3.19865345954895,-12.203246116638184
1772456007311932400,13.508932373046875,-6.845022678375244,-2.935291290283203,-12.617443084716797
1772456007321904000,13.518904052734374,-7.0988078117370605,-2.1811177730560303,-12.48815631866455
1772456007332233700,13.529233642578125,-6.811503887176514,-1.4245500564575195,-12.284648895263672
1772456007341917400,13.53891748046875,-5.240907669067383,0.2944868206977844,-11.985373497009277
1772456007351932200,13.54893212890625,-4.6040496826171875,1.1994950771331787,-11.645397186279297
1772456007361918200,13.558918212890624,-3.9695863723754883,1.678335428237915,-11.058817863464355
1772456007372531700,13.56953173828125,-3.313575267791748,1.37906014919281,-10.575188636779785
1772456007381885200,13.57888525390625,-2.456450939178467,0.19153612852096558,-10.06043529510498
1772456007394401300,13.5914013671875,-2.4636335372924805,-1.0223240852355957,-9.47146224975586
1772456007401890800,13.598890869140625,-2.6815059185028076,-2.7126305103302,-8.93037223815918
1772456007411911400,13.608911376953126,-3.220201253890991,-4.774038314819336,-8.451532363891602
1772456007421899300,13.618899169921875,-3.361459255218506,-6.576871871948242,-8.396465301513672
1772456007432223500,13.629223388671875,-3.292027235031128,-7.709329605102539,-8.667010307312012
1772456007441896400,13.638896484375,-3.6104562282562256,-7.745242595672607,-9.093177795410156
1772456007451904000,13.648904052734375,-3.56017804145813,-7.338228225708008,-9.48343276977539
1772456007461863200,13.65886328125,-3.1028854846954346,-6.967126846313477,-9.775525093078613
1772456007472053800,13.6690537109375,-2.693476915359497,-6.567295074462891,-9.86889934539795
1772456007481857500,13.678857421875,-2.4229321479797363,-6.1530985832214355,-9.787496566772461
1772456007491876400,13.68887646484375,-1.7812861204147339,-5.805939197540283,-9.593565940856934
1772456007511911400,13.708911376953125,0.3064578175544739,-4.656722068786621,-9.148244857788086
1772456007521837000,13.718837158203126,1.4053963422775269,-3.9384617805480957,-8.827422142028809
1772456007532764700,13.7297646484375,2.3295583724975586,-3.3446998596191406,-8.513781547546387
1772456007541859300,13.738859375,3.177105665206909,-2.875436305999756,-8.44195556640625
1772456007553493800,13.75049365234375,4.065354347229004,-2.360682964324951,-8.38688850402832
1772456007561870600,13.75887060546875,4.659116744995117,-1.7046716213226318,-8.465897560119629
1772456007571876900,13.768876953125,5.367800235748291,-1.4221558570861816,-8.422801971435547
1772456007581856500,13.7788564453125,5.652710437774658,-1.314416766166687,-8.489839553833008
1772456007591891700,13.7888916015625,5.600037574768066,-1.3215993642807007,-8.700529098510742
1772456007611847400,13.808847412109374,5.0254292488098145,-0.7876923680305481,-8.238448143005371
1772456007621847000,13.818846923828126,4.185064792633057,-0.5051765441894531,-8.099584579467773
1772456007632191200,13.829191162109375,3.31118106842041,-0.3734954595565796,-8.367734909057617
1772456007641850000,13.83885009765625,2.387019157409668,-0.5602431893348694,-8.743624687194824
1772456007651850200,13.848850341796876,1.158793568611145,-0.8643068075180054,-8.973467826843262
1772456007661849300,13.858849365234375,-0.38307225704193115,-1.292868971824646,-9.411606788635254
1772456007671882200,13.86888232421875,-1.9608511924743652,-1.4437036514282227,-9.849745750427246
1772456007681847800,13.878847900390625,-3.5697548389434814,-1.2330138683319092,-10.266336441040039
1772456007692469000,13.889468994140625,-5.303156852722168,-1.235408067703247,-10.500968933105469
1772456007701848600,13.8988486328125,-6.8809356689453125,-1.5059528350830078,-10.754754066467285
1772456007732195300,13.9291953125,-9.208099365234375,-2.8131868839263916,-11.925518989562988
1772456007741872000,13.9388720703125,-9.248801231384277,-3.3518824577331543,-12.210428237915039
1772456007751920000,13.948920166015625,-9.062053680419922,-3.8307228088378906,-12.231976509094238
1772456007761886200,13.95888623046875,-8.406042098999023,-4.376600742340088,-11.987768173217773
1772456007771895600,13.9688955078125,-7.319074630737305,-4.572925090789795,-11.552022933959961
1772456007781900800,13.97890087890625,-6.435614109039307,-4.613626480102539,-10.87446403503418
1772456007791950600,13.98895068359375,-5.200206279754639,-4.3622355461120605,-10.409989356994629
1772456007801917400,13.99891748046875,-4.247313976287842,-4.046200752258301,-9.873687744140625
1772456007811931100,14.00893115234375,-2.736572504043579,-3.5649664402008057,-9.533711433410645
1772456007832279000,14.029279052734376,0.1149216815829277,-2.341529369354248,-8.892065048217773
1772456007841944300,14.0389443359375,1.256955862045288,-1.7501614093780518,-8.391676902770996
1772456007852569600,14.049569580078124,2.5474305152893066,-1.2473790645599365,-7.8960771560668945
1772456007861965800,14.0589658203125,3.5194764137268066,-1.1516109704971313,-7.378929615020752
1772456007873654800,14.07065478515625,4.266467571258545,-1.2761094570159912,-7.062894821166992
1772456007882004000,14.07900390625,5.252878665924072,-1.9704279899597168,-6.873753070831299
1772456007892024600,14.089024658203124,5.928043365478516,-1.7381904125213623,-6.763619899749756
1772456007902020000,14.09902001953125,6.461950302124023,-1.6352397203445435,-6.57926607131958
1772456007912074200,14.10907421875,6.7277069091796875,-1.644816517829895,-6.452373504638672
1772456007922046000,14.1190458984375,6.677428722381592,-1.7357962131500244,-6.440402507781982
1772456007932392000,14.129391845703125,6.3302693367004395,-1.6496049165725708,-6.7061591148376465
1772456007942074400,14.139074462890624,5.74129581451416,-1.5729905366897583,-6.8378400802612305
1772456007952137000,14.149136962890625,4.98472785949707,-1.434126853942871,-7.1490864753723145
1772456007962111000,14.159111083984374,4.194641590118408,-1.501164436340332,-7.513004779815674
1772456007972128800,14.169128662109374,3.2106244564056396,-1.8195933103561401,-7.924807548522949
1772456007982126000,14.1791259765625,1.8507179021835327,-2.2146365642547607,-8.489839553833008
1772456007992166100,14.189166259765624,0.3663128614425659,-2.5953147411346436,-9.117119789123535
1772456008002131500,14.19913134765625,-1.5729905366897583,-2.832340717315674,-9.66299819946289
1772456008012760300,14.20976025390625,-3.2417490482330322,-3.488351821899414,-10.086771965026855
1772456008022404900,14.21940478515625,-4.95120906829834,-4.122815132141113,-10.60152530670166
1772456008035020800,14.232020751953126,-6.708553314208984,-4.517858505249023,-11.197681427001953
1772456008042235600,14.239235595703125,-8.183381080627441,-4.838681697845459,-11.621455192565918
1772456008052256300,14.24925634765625,-8.69334602355957,-5.212177276611328,-12.145785331726074
1772456008062248200,14.259248291015625,-9.126696586608887,-5.183446884155273,-12.571952819824219
1772456008072309500,14.2693095703125,-9.011775016784668,-5.051765441894531,-12.658143997192383
1772456008082276600,14.279276611328125,-8.190564155578613,-4.752490520477295,-12.823344230651855
1772456008092287700,14.289287841796876,-7.237671852111816,-4.833893299102783,-12.789825439453125
1772456008102286800,14.299286865234375,-6.3949127197265625,-5.17626428604126,-12.287043571472168
1772456008112324400,14.309324462890626,-5.468356609344482,-5.600037574768066,-11.836933135986328
1772456008122296300,14.31929638671875,-4.599261283874512,-5.861005783081055,-11.1474027633667
1772456008132627200,14.329627197265625,-3.4787750244140625,-5.884947776794434,-10.512939453125
1772456008142317600,14.339317626953125,-2.1308395862579346,-5.6910176277160645,-9.907206535339355
1772456008152365600,14.349365478515624,-0.3974374830722809,-4.5394062995910645,-9.07641887664795
1772456008162333400,14.35933349609375,0.6991068720817566,-3.4811692237854004,-8.877699851989746
1772456008172966700,14.369966552734375,2.0039467811584473,-2.604891538619995,-8.458714485168457
1772456008182349000,14.37934912109375,3.450044631958008,-1.5442601442337036,-7.817068576812744
1772456008193983000,14.39098291015625,4.395754337310791,0.4908113479614258,-7.3885064125061035
1772456008202360800,14.39936083984375,5.207388877868652,2.6144683361053467,-7.189787864685059
1772456008212373200,14.409373291015624,6.495469093322754,3.7229835987091064,-6.6846113204956055
1772456008222361900,14.41936181640625,7.33583402633667,4.060565948486328,-6.366182327270508
1772456008232708600,14.42970849609375,7.4100542068481445,3.627215623855591,-6.035782337188721
1772456008242368800,14.43936865234375,7.3023152351379395,2.808398485183716,-6.356605529785156
1772456008252387800,14.449387939453125,6.888118267059326,2.2218191623687744,-6.734889507293701
1772456008262386200,14.45938623046875,6.473921298980713,2.0374655723571777,-7.074865818023682
1772456008272426500,14.469426513671875,5.980715751647949,2.0446481704711914,-7.3454108238220215
1772456008282400000,14.47939990234375,5.590460777282715,2.142810583114624,-7.757213592529297
1772456008292416500,14.48941650390625,5.317522048950195,2.0254945755004883,-7.979874134063721
1772456008302406000,14.499406005859376,4.95120906829834,1.7381904125213623,-8.456320762634277
1772456008312457000,14.50945703125,4.022258758544922,1.2282254695892334,-8.87291145324707
1772456008322421200,14.519421142578125,2.853888511657715,0.35673606395721436,-9.167398452758789
1772456008333354800,14.530354736328125,1.479616641998291,-1.0414776802062988,-9.452308654785156
1772456008342456800,14.539456787109375,0.3711012601852417,-2.63362193107605,-9.53849983215332
1772456008354995700,14.55199560546875,-0.15562310814857483,-4.367023944854736,-9.727641105651855
1772456008362498600,14.55949853515625,-1.1324573755264282,-5.896918773651123,-10.196905136108398
1772456008372527600,14.569527587890626,-2.121262788772583,-6.818686485290527,-10.649409294128418
1772456008382526500,14.5795263671875,-2.717418909072876,-7.457938194274902,-10.673351287841797
1772456008392571400,14.5895712890625,-3.5266590118408203,-7.872135162353516,-10.680533409118652
1772456008402553300,14.59955322265625,-3.97916316986084,-8.518569946289062,-10.795455932617188
1772456008412581400,14.609581298828125,-3.514688014984131,-9.888052940368652,-11.209651947021484
1772456008422604000,14.61960400390625,-3.0526070594787598,-9.524134635925293,-11.30063247680664
1772456008432949800,14.62994970703125,-2.47560453414917,-8.468291282653809,-11.140220642089844
1772456008442611200,14.639611083984375,-1.9512743949890137,-7.285555839538574,-10.656591415405273
1772456008452631300,14.64963134765625,-1.1324573755264282,-6.232107162475586,-10.072406768798828
1772456008462637000,14.659636962890625,-0.026336219161748886,-5.149928092956543,-9.655815124511719
1772456008472677600,14.669677734375,1.0223240852355957,-4.0533833503723145,-9.165003776550293
1772456008482649300,14.6796494140625,1.8626888990402222,-2.8203697204589844,-8.667010307312012
1772456008493279000,14.690279052734375,2.7222073078155518,-1.4963760375976562,-8.31985092163086
1772456008502675000,14.699675048828125,3.7277719974517822,-0.33518823981285095,-7.9415669441223145
1772456008514366200,14.7113662109375,4.4532151222229,0.7948749661445618,-7.5417351722717285
1772456008522711800,14.7197119140625,5.157110691070557,1.6184803247451782,-7.266402244567871
1772456008533043700,14.730043701171875,5.9304375648498535,2.0015525817871094,-6.981492042541504
1772456008542738400,14.739738525390624,6.476315498352051,2.3750481605529785,-6.871358871459961
1772456008552970500,14.749970458984375,6.682217121124268,2.5522189140319824,-6.943184852600098
1772456008562765800,14.759765869140624,6.797138690948486,2.7676970958709717,-7.0341644287109375
1772456008572786400,14.769786376953125,6.861782073974609,3.0190882682800293,-7.0557122230529785
1772456008582779100,14.779779052734375,6.720524311065674,3.2561142444610596,-7.091625213623047
1772456008592822000,14.789822021484374,6.490680694580078,3.428496837615967,-6.979097843170166
1772456008602814000,14.79981396484375,6.260837554931641,3.270479440689087,-7.022193431854248
1772456008612827600,14.80982763671875,5.995080947875977,2.9903578758239746,-7.2568254470825195
1772456008622817500,14.819817626953125,5.669469833374023,2.8395233154296875,-7.7213006019592285
1772456008633167600,14.830167724609375,5.0900726318359375,2.669534921646118,-8.35336971282959
1772456008642815700,14.839815673828125,4.378994941711426,2.10210919380188,-8.78193187713623
1772456008653436700,14.850436767578126,3.5482068061828613,1.6663644313812256,-8.908824920654297
1772456008675357400,14.872357421875,2.5067291259765625,0.5123591423034668,-9.14585018157959
1772456008682850000,14.87985009765625,1.821987509727478,-0.790086567401886,-9.751583099365234
1772456008692854800,14.889854736328125,1.3239935636520386,-1.8579005002975464,-9.93354320526123
1772456008702843600,14.89984375,0.9528923034667969,-3.19865345954895,-9.979032516479492
1772456008712880600,14.909880615234375,0.6919242739677429,-4.9583916664123535,-9.765948295593262
1772456008722843100,14.919843017578126,0.45489832758903503,-6.775590896606445,-9.641449928283691
1772456008733163300,14.930163330078125,0.23702596127986908,-8.595184326171875,-9.469067573547363
1772456008742843100,14.939843017578125,0.2513911724090576,-10.345345497131348,-9.220070838928223
1772456008752875500,14.94987548828125,0.08140286058187485,-11.492168426513672,-9.047688484191895
1772456008772847900,14.969847900390626,-0.12210428714752197,-11.975796699523926,-9.581595420837402
1772456008782834000,14.979833984375,0.18914192914962769,-10.979808807373047,-9.780313491821289
1772456008792889000,14.98988916015625,0.6943184733390808,-9.435548782348633,-9.77791976928711
1772456008802854700,14.999854736328125,1.1971008777618408,-7.888894557952881,-9.44752025604248
1772456008813468700,15.01046875,1.6543933153152466,-6.445190906524658,-9.124302864074707
1772456008822877400,15.01987744140625,2.126051187515259,-5.082890033721924,-8.757989883422852
1772456008834825700,15.03182568359375,2.4372973442077637,-3.550601005554199,-8.508993148803711
1772456008842943700,15.03994384765625,2.8155810832977295,-1.8698714971542358,-8.243236541748047
1772456008852964000,15.049964111328125,3.201047658920288,-0.3016694188117981,-8.039729118347168
1772456008862951200,15.059951171875,3.4332852363586426,1.091755986213684,-7.910442352294922
1772456008873002000,15.070001953125,3.7421371936798096,2.0805611610412598,-7.807491779327393
1772456008882975200,15.079975341796874,4.316745758056641,2.5474305152893066,-7.848193168640137
1772456008893006800,15.0900068359375,4.884171485900879,2.695871114730835,-7.884106159210205
1772456008903011300,15.10001123046875,5.5545477867126465,2.894589900970459,-8.066065788269043
1772456008913067300,15.1100673828125,5.693411827087402,3.3494882583618164,-7.8098859786987305
1772456008923038700,15.120038818359374,6.107608318328857,3.6727054119110107,-7.625532627105713
1772456008933375700,15.130375732421875,6.478709697723389,3.869029998779297,-7.51779317855835
1772456008943066400,15.14006640625,6.794744491577148,3.794809579849243,-7.532158374786377
1772456008953116400,15.150116455078125,6.550535678863525,3.581725835800171,-7.716512203216553
1772456008963090200,15.160090087890625,6.2847795486450195,3.3446998596191406,-7.860164165496826
1772456008973718500,15.170718505859375,6.0190229415893555,2.983175277709961,-7.910442352294922
1772456008983110100,15.180110107421875,5.770026206970215,2.432508945465088,-8.056488990783691
1772456008995669500,15.19266943359375,5.497087001800537,1.6759412288665771,-8.169015884399414
1772456009003169300,15.200169189453124,5.231330871582031,1.139639973640442,-8.286332130432129
1772456009013184800,15.210184814453125,4.888959884643555,0.4908113479614258,-8.341399192810059
1772456009023173600,15.220173583984375,4.307168960571289,-0.35434186458587646,-8.44434928894043
1772456009033529000,15.230529052734376,3.756502389907837,-1.4245500564575195,-8.537723541259766
1772456009043195100,15.240195068359375,2.9759926795959473,-2.8874073028564453,-8.631096839904785
1772456009053211100,15.250211181640625,2.38462495803833,-4.422090530395508,-8.80587387084961
1772456009063208000,15.2602080078125,2.0422539710998535,-6.009446144104004,-9.064447402954102
1772456009073247700,15.270247802734374,1.4891934394836426,-7.4986395835876465,-9.083600997924805
1772456009083469300,15.28046923828125,0.8547300100326538,-8.954314231872559,-9.02135181427002
1772456009093237200,15.2902373046875,0.545877993106842,-9.744400978088379,-9.399636268615723
1772456009103204000,15.3002041015625,-0.5051765441894531,-10.505757331848145,-9.435548782348633
1772456009113257000,15.310257080078125,-0.730231523513794,-10.730812072753906,-9.72285270690918
1772456009123196200,15.320196044921875,-0.6607996821403503,-10.156203269958496,-9.995792388916016
1772456009134156800,15.33115673828125,-0.24181437492370605,-8.987833023071289,-10.180145263671875
1772456009143207000,15.34020703125,0.11013327538967133,-7.577648162841797,-10.113107681274414
1772456009154887700,15.3518876953125,0.49799394607543945,-6.311115741729736,-10.002974510192871
1772456009163203000,15.360203125,0.9193734526634216,-5.0685248374938965,-9.892841339111328
1772456009173221000,15.37022119140625,1.400607943534851,-3.8355112075805664,-9.68933391571045
1772456009183185200,15.38018505859375,1.9393033981323242,-2.4684219360351562,-9.425971984863281
1772456009203177500,15.400177490234375,3.272873640060425,-0.22744916379451752,-8.920795440673828
1772456009213192000,15.41019189453125,4.304774761199951,1.5083470344543457,-8.724471092224121
1772456009223193300,15.420193359375,4.630385875701904,2.0207061767578125,-8.647856712341309
1772456009233550300,15.43055029296875,4.953603267669678,2.255337953567505,-8.5903959274292
1772456009243201000,15.440200927734375,5.281609058380127,2.4875755310058594,-8.485051155090332
1772456009253201200,15.450201171875,5.406107425689697,2.6455929279327393,-8.394071578979492
1772456009263177200,15.46017724609375,5.612008571624756,2.9065608978271484,-8.482656478881836
1772456009273209000,15.470208984375,5.640739440917969,3.179499864578247,-8.473079681396484
1772456009283193600,15.480193603515625,5.78678560256958,3.2992098331451416,-8.56884765625
1772456009293813500,15.4908134765625,5.9304375648498535,3.1938650608062744,-8.485051155090332
1772456009303193600,15.500193603515624,5.837063789367676,3.1268274784088135,-8.564059257507324
1772456009315719700,15.5127197265625,5.585672378540039,2.87064790725708,-8.525752067565918
1772456009323210500,15.52021044921875,5.276820659637451,2.557007312774658,-8.525752067565918
1772456009333529300,15.530529296875,4.876988887786865,2.10210919380188,-8.556877136230469
1772456009343225300,15.540225341796875,4.467580318450928,1.580173134803772,-8.810662269592285
1772456009353251800,15.550251953125,4.01268196105957,0.8882488012313843,-8.846575736999512
1772456009363202000,15.5602021484375,3.4763808250427246,-0.1364694982767105,-8.868123054504395
1772456009373233700,15.570233642578126,2.82515811920166,-1.292868971824646,-8.729259490966797
1772456009383204000,15.5802041015625,2.293645143508911,-2.5689783096313477,-8.678980827331543
1772456009393241300,15.590241455078125,1.9560627937316895,-4.055777549743652,-8.5903959274292
1772456009413200100,15.6102001953125,0.7350199222564697,-7.374141216278076,-8.700529098510742
1772456009423196400,15.620196533203124,-0.6655880808830261,-9.215282440185547,-8.712499618530273
1772456009433539800,15.630539794921875,-1.9033904075622559,-11.21204662322998,-8.813055992126465
1772456009443192800,15.64019287109375,-2.3582887649536133,-12.81855583190918,-9.11233139038086
1772456009453820700,15.650820556640625,-1.8914192914962769,-13.139378547668457,-9.493009567260742
1772456009463206000,15.660205810546875,-1.3479355573654175,-11.568782806396484,-9.847352027893066
1772456009474841900,15.671841796875,-0.38067805767059326,-9.38048267364502,-10.120290756225586
1772456009483218700,15.68021875,0.7996633648872375,-7.47230339050293,-9.701305389404297
1772456009493225200,15.69022509765625,1.1659762859344482,-4.793191909790039,-9.404424667358398
1772456009503207400,15.70020751953125,1.845929503440857,-3.88818359375,-9.095572471618652
1772456009513219600,15.710219482421875,2.628833532333374,-2.7724854946136475,-8.9064302444458
1772456009523193000,15.720193115234375,3.421314239501953,-1.5945383310317993,-8.695740699768066
1772456009533511400,15.730511474609376,4.261679172515869,-0.2346317619085312,-8.588001251220703
1772456009543188500,15.7401884765625,4.93923807144165,1.1300631761550903,-8.542511940002441
1772456009553208800,15.750208740234376,5.420472621917725,2.233790159225464,-8.303091049194336
1772456009563167200,15.760167236328124,6.282385349273682,2.911349296569824,-8.180987358093262
1772456009573175800,15.77017578125,6.6391215324401855,3.3638534545898438,-7.891288757324219
1772456009583155200,15.7801552734375,7.122750282287598,3.646369218826294,-7.675810813903809
1772456009593182200,15.79018212890625,7.620744228363037,4.082113742828369,-7.905653953552246
1772456009603142100,15.80014208984375,7.687781810760498,4.632780075073242,-8.166622161865234
1772456009613753000,15.810753173828125,7.869740962982178,4.98472785949707,-8.362946510314941
1772456009623149000,15.820149169921875,7.843404769897461,5.066130638122559,-8.133103370666504
1772456009635960800,15.8329609375,7.759607791900635,5.104437828063965,-8.001421928405762
1772456009643152600,15.840152587890625,7.307103633880615,4.934449672698975,-7.915230751037598
1772456009653151200,15.850151123046874,6.6127848625183105,4.376600742340088,-7.826645374298096
1772456009663155500,15.860155517578125,5.849034786224365,3.7876269817352295,-8.020575523376465
1772456009673171500,15.87017138671875,5.0469770431518555,3.1699230670928955,-8.293514251708984
1772456009683123500,15.88012353515625,4.290409564971924,2.5689783096313477,-8.595184326171875
1772456009693124400,15.890124267578125,3.4189200401306152,1.8291701078414917,-8.757989883422852
1772456009703111700,15.900111572265626,2.5450363159179688,0.9409212470054626,-8.734047889709473
1772456009713144000,15.91014404296875,1.721431016921997,-0.009576806798577309,-8.80587387084961
1772456009733417000,15.9304169921875,0.37828385829925537,-1.9512743949890137,-8.87291145324707
1772456009743246800,15.940246826171874,-0.5434837937355042,-2.6384103298187256,-8.978256225585938
1772456009753112000,15.950112060546875,-1.501164436340332,-3.536235809326172,-9.284713745117188
1772456009763065600,15.960065673828124,-3.2968156337738037,-5.468356609344482,-9.425971984863281
1772456009773696500,15.970696533203125,-2.736572504043579,-7.220912456512451,-9.552865028381348
1772456009783102500,15.9801025390625,-2.2457611560821533,-9.57441234588623,-9.763554573059082
1772456009794757600,15.991757568359375,-2.5546131134033203,-11.477803230285645,-9.93354320526123
1772456009803068700,16.000068603515626,-2.8802247047424316,-12.540828704833984,-10.369287490844727
1772456009813108700,16.010108642578125,-2.827552318572998,-12.485761642456055,-10.57040023803711
1772456009833440800,16.030440673828124,-0.8667010068893433,-10.120290756225586,-10.649409294128418
1772456009843073300,16.0400732421875,0.363918662071228,-8.899248123168945,-10.187328338623047
1772456009853087700,16.050087646484375,0.5195417404174805,-7.888894557952881,-9.567230224609375
1772456009863088600,16.060088623046877,2.051830768585205,-7.781155586242676,-8.947132110595703
1772456009873109500,16.070109619140624,3.6104562282562256,-7.299921035766602,-8.11634349822998
1772456009883065300,16.0800654296875,4.532223701477051,-5.944802761077881,-7.400477409362793
1772456009893081000,16.0900810546875,5.679046630859375,-4.4723687171936035,-6.7923502922058105
1772456009903379000,16.10037890625,6.538564682006836,-3.043030261993408,-6.229712963104248
1772456009913097000,16.110096923828124,7.275979042053223,-1.7357962131500244,-5.767632007598877
1772456009933996500,16.13099658203125,7.338228225708008,-0.5578489899635315,-5.612008571624756
1772456009943067000,16.14006689453125,7.558494567871094,-0.751779317855835,-5.609614372253418
1772456009955621000,16.15262109375,7.527369976043701,-1.0462661981582642,-5.638344764709473
1772456009963119600,16.16011962890625,7.493851184844971,-1.173158884048462,-5.705382823944092
1772456009973123000,16.170123046875,7.556100368499756,-1.316810965538025,-5.947196960449219
1772456009983112700,16.18011279296875,7.625532627105713,-1.3527239561080933,-6.057330131530762
1772456009993144000,16.19014404296875,7.793126583099365,-1.2282254695892334,-5.8203043937683105
1772456010003112400,16.200112548828123,7.773972988128662,-0.950498104095459,-5.547365188598633
1772456010013122000,16.2101220703125,7.709329605102539,-0.6584054827690125,-5.2480902671813965
1772456010023148800,16.220148681640627,7.733271598815918,-0.6248866319656372,-5.1810526847839355
