time,seconds_elapsed,z,y,x
1772455995963500800,2.160500732421875,-0.29077184200286865,-0.1062905490398407,0.3591887652873993
1772455995973435000,2.170434814453125,-0.11850785464048386,-0.42638394236564636,0.09896016865968704
1772455995984097500,2.18109765625,0.04642575979232788,-1.1410962343215942,-0.656069278717041
1772455995994083600,2.19108349609375,-0.1160643994808197,0.31520646810531616,0.45692721009254456
1772455996004130600,2.201130615234375,-0.06841690838336945,0.3286454975605011,0.37751471996307373
1772455996014141400,2.211141357421875,0.01466076634824276,0.02076941914856434,-0.042760565876960754
1772455996024489700,2.22148974609375,0.00855211354792118,0.010995574295520782,-0.03298672288656235
1772455996034151200,2.231151123046875,0.00733038317412138,0.00733038317412138,-0.00366519158706069
1772455996044200700,2.24120068359375,0,0.0024434609804302454,0.025656340643763542
1772455996054161400,2.251161376953125,-0.00366519158706069,0,0.04642575979232788
1772455996064199400,2.261199462890625,-0.00366519158706069,-0.0024434609804302454,0.039095375686883926
1772455996074184000,2.271183837890625,0,0,0.013439035043120384
1772455996105817600,2.302817626953125,0.00855211354792118,0.006108652334660292,-0.021991148591041565
1772455996114231000,2.31123095703125,0.006108652334660292,0.00366519158706069,-0.01710422709584236
1772455996124584200,2.321584228515625,0.004886921960860491,0.00366519158706069,-0.012217304669320583
1772455996134247000,2.331246826171875,-0.0024434609804302454,0.0024434609804302454,-0.009773843921720982
1772455996144284200,2.3412841796875,-0.006108652334660292,-0.0012217304902151227,-0.00366519158706069
1772455996154289400,2.351289306640625,-0.00855211354792118,-0.0012217304902151227,0.010995574295520782
1772455996164342300,2.36134228515625,-0.00855211354792118,-0.0024434609804302454,0.015882495790719986
1772455996174321400,2.3713212890625,-0.00733038317412138,-0.00366519158706069,0.012217304669320583
1772455996184343600,2.381343505859375,-0.00366519158706069,-0.004886921960860491,0.00366519158706069
1772455996194333400,2.39133349609375,0,-0.00366519158706069,-0.00855211354792118
1772455996204376600,2.40137646484375,-0.0012217304902151227,-0.00366519158706069,-0.02076941914856434
1772455996214351600,2.4113515625,-0.0024434609804302454,-0.006108652334660292,-0.030543262138962746
1772455996224683800,2.421683837890625,-0.00366519158706069,-0.00733038317412138,-0.00733038317412138
1772455996234358000,2.43135791015625,-0.00366519158706069,-0.006108652334660292,0.01710422709584236
1772455996245003000,2.4420029296875,-0.004886921960860491,-0.006108652334660292,0.02932153269648552
1772455996254381000,2.451381103515625,-0.00733038317412138,-0.00366519158706069,0.019547687843441963
1772455996266882600,2.463882568359375,-0.00733038317412138,0.0012217304902151227,0.006108652334660292
1772455996274410800,2.47141064453125,-0.006108652334660292,0,-0.00855211354792118
1772455996284450000,2.481449951171875,-0.00366519158706069,0.0024434609804302454,-0.01466076634824276
1772455996304469800,2.5014697265625,0.0012217304902151227,0.00733038317412138,-0.00733038317412138
1772455996314467600,2.511467529296875,0.0012217304902151227,0.00733038317412138,0
1772455996324824600,2.521824462890625,0.0024434609804302454,0.004886921960860491,0.00855211354792118
1772455996334516500,2.5315166015625,0.0024434609804302454,0.0012217304902151227,0.01466076634824276
1772455996344536600,2.54153662109375,0.006108652334660292,0.00366519158706069,0.024434609338641167
1772455996354543900,2.5515439453125,0.00855211354792118,0.012217304669320583,0.030543262138962746
1772455996364575200,2.5615751953125,0.012217304669320583,0.018325956538319588,0.01466076634824276
1772455996374551600,2.571551513671875,0.018325956538319588,0.02687807008624077,0.009773843921720982
1772455996384563000,2.58156298828125,0.019547687843441963,0.02321287989616394,-0.00855211354792118
1772455996414580700,2.611580810546875,0.019547687843441963,0.013439035043120384,-0.01466076634824276
1772455996426528000,2.623528076171875,0.01710422709584236,0.012217304669320583,0.0024434609804302454
1772455996434617900,2.631617919921875,0.013439035043120384,0.00855211354792118,0.00855211354792118
1772455996444637400,2.641637451171875,0.00733038317412138,0.004886921960860491,0.009773843921720982
1772455996454601500,2.6516015625,-0.0012217304902151227,0.00366519158706069,0.006108652334660292
1772455996464614000,2.66161376953125,-0.0024434609804302454,0.006108652334660292,0.004886921960860491
1772455996474604500,2.6716044921875,-0.00733038317412138,0.00366519158706069,0.00733038317412138
1772455996484632600,2.681632568359375,-0.013439035043120384,0.00366519158706069,0.0024434609804302454
1772455996514604000,2.71160400390625,-0.02076941914856434,0.010995574295520782,-0.00366519158706069
1772455996524941800,2.72194189453125,-0.01710422709584236,0.01710422709584236,-0.0012217304902151227
1772455996534598000,2.731597900390625,-0.018325956538319588,0.018325956538319588,-0.0024434609804302454
1772455996544626700,2.741626708984375,-0.019547687843441963,0.015882495790719986,-0.00733038317412138
1772455996554622700,2.751622802734375,-0.018325956538319588,0.015882495790719986,-0.01466076634824276
1772455996565256200,2.762256103515625,-0.013439035043120384,0.013439035043120384,-0.021991148591041565
1772455996574617000,2.7716171875,-0.010995574295520782,0.01466076634824276,-0.028099801391363144
1772455996587102200,2.784102294921875,-0.009773843921720982,0.00733038317412138,-0.03176499158143997
1772455996614629600,2.811629638671875,-0.012217304669320583,0.00366519158706069,-0.01466076634824276
1772455996624948700,2.82194873046875,-0.013439035043120384,0.00366519158706069,-0.006108652334660292
1772455996634626300,2.831626220703125,-0.01466076634824276,0.0012217304902151227,0.0012217304902151227
1772455996644651800,2.84165185546875,-0.02321287989616394,0.0024434609804302454,-0.0024434609804302454
1772455996654613800,2.85161376953125,-0.025656340643763542,0.00855211354792118,-0.00855211354792118
1772455996664617200,2.8616171875,-0.025656340643763542,0.010995574295520782,-0.009773843921720982
1772455996674612000,2.871612060546875,-0.025656340643763542,0.013439035043120384,-0.004886921960860491
1772455996684631000,2.881631103515625,-0.02932153269648552,0.012217304669320583,-0.004886921960860491
1772455996694603500,2.891603515625,-0.03176499158143997,0.018325956538319588,-0.0024434609804302454
1772455996725567000,2.92256689453125,-0.04764748737215996,0.042760565876960754,0.030543262138962746
1772455996734604000,2.93160400390625,-0.05864306539297104,0.05375614017248154,0.03787364438176155
1772455996746207700,2.943207763671875,-0.07819075137376785,0.07819075137376785,0.039095375686883926
1772455996754619400,2.951619384765625,-0.08185594528913498,0.09285151958465576,0.042760565876960754
1772455996764645600,2.961645751953125,-0.08307767659425735,0.11850785464048386,0.05619960278272629
1772455996774602000,2.97160205078125,-0.09896016865968704,0.14049901068210602,0.042760565876960754
1772455996784812500,2.9818125,-0.11239920556545258,0.16493362188339233,0.03420845419168472
1772455996794613000,2.991613037109375,-0.12339477986097336,0.17959438264369965,0.03420845419168472
1772455996804642800,3.001642822265625,-0.13561208546161652,0.18814650177955627,0.045204028487205505
1772455996834643200,3.031643310546875,-0.16737708449363708,0.20891591906547546,0.08796459436416626
1772455996844667100,3.041667236328125,-0.1869247704744339,0.21380282938480377,0.14049901068210602
1772455996854621200,3.05162109375,-0.2223549485206604,0.20891591906547546,0.24434609711170197
1772455996864625200,3.061625244140625,-0.26145032048225403,0.18936823308467865,0.3543018400669098
1772455996874622000,3.0716220703125,-0.3078760802745819,0.18570303916931152,0.44715335965156555
1772455996885259800,3.082259765625,-0.3481931984424591,0.18081611394882202,0.5082398653030396
1772455996894615300,3.091615234375,-0.3897320330142975,0.17348572611808777,0.5595525503158569
1772455996907112000,3.10411181640625,-0.45326200127601624,0.17470745742321014,0.6255260109901428
1772455996934633200,3.13163330078125,-0.5644394755363464,0.20402899384498596,0.7806857824325562
1772455996944641500,3.1416416015625,-0.626747727394104,0.21013765037059784,0.7757988572120667
1772455996954646800,3.151646728515625,-0.6841690540313721,0.23090706765651703,0.8100073337554932
1772455996964677000,3.161677001953125,-0.7367035150527954,0.2528982162475586,0.8552113175392151
1772455996974646800,3.171646728515625,-0.7843509912490845,0.2919935882091522,0.9272934198379517
1772455996984679200,3.18167919921875,-0.8222246170043945,0.3335324227809906,1.0115928649902344
1772455996994667500,3.19166748046875,-0.8698720932006836,0.3445279896259308,1.0543533563613892
1772455997004706600,3.20170654296875,-0.9236282706260681,0.34697145223617554,1.0592403411865234
1772455997014675700,3.21167578125,-0.96883225440979,0.36529740691185,1.037249207496643
1772455997034696400,3.231696533203125,-1.0030407905578613,0.3836233615875244,0.93095862865448
1772455997045339400,3.24233935546875,-1.0128145217895508,0.3933972120285034,0.8393288254737854
1772455997054701800,3.251701904296875,-1.0054842233657837,0.3933972120285034,0.7367035150527954
1772455997066344200,3.26334423828125,-0.9957103729248047,0.3799581825733185,0.6035348773002625
1772455997074718200,3.27171826171875,-0.9859365224838257,0.3628539443016052,0.47769662737846375
1772455997084747300,3.281747314453125,-0.9737191796302795,0.35063666105270386,0.3604104816913605
1772455997094711800,3.2917119140625,-0.9615018963813782,0.34697145223617554,0.24556782841682434
1772455997104721700,3.3017216796875,-0.9492846131324768,0.3481931984424591,0.18814650177955627
1772455997114707000,3.31170703125,-0.9553932547569275,0.3384193480014801,0.16493362188339233
1772455997144726300,3.341726318359375,-0.9993755221366882,0.28588494658470154,0.2528982162475586
1772455997154709800,3.351709716796875,-1.0225883722305298,0.27122417092323303,0.31520646810531616
1772455997164745000,3.361744873046875,-1.0580185651779175,0.2321287989616394,0.3787364661693573
1772455997174709200,3.371709228515625,-1.0897835493087769,0.1918116807937622,0.45204028487205505
1772455997184722000,3.381721923828125,-1.1215485334396362,0.1270599663257599,0.5644394755363464
1772455997194714000,3.391714111328125,-1.147204875946045,0.07452555745840073,0.6255260109901428
1772455997205345800,3.402345703125,-1.1704177856445312,0.0354301854968071,0.656069278717041
1772455997214723600,3.4117236328125,-1.1997393369674683,0.009773843921720982,0.6743952035903931
1772455997227562200,3.424562255859375,-1.2131783962249756,-0.00366519158706069,0.6939429044723511
1772455997254734300,3.451734375,-1.301142930984497,-0.051312681287527084,0.8539896011352539
1772455997264742400,3.461742431640625,-1.321912407875061,-0.06108652427792549,0.9370672702789307
1772455997274730000,3.47172998046875,-1.33168625831604,-0.07452555745840073,1.0421360731124878
1772455997284749800,3.481749755859375,-1.2986994981765747,-0.07452555745840073,1.1337659358978271
1772455997294710800,3.491710693359375,-1.2950342893600464,-0.10018189996480942,1.2315043210983276
1772455997304714800,3.50171484375,-1.310916781425476,-0.1319468915462494,1.3463469743728638
1772455997314692000,3.511692138671875,-1.274264931678772,-0.15760323405265808,1.5039502382278442
1772455997325025000,3.52202490234375,-1.253495454788208,-0.1661553531885147,1.5748106241226196
1772455997334707000,3.53170703125,-1.2400563955307007,-0.1722639948129654,1.6236798763275146
1772455997365323300,3.5623232421875,-1.1618657112121582,-0.16249015927314758,1.6004669666290283
1772455997374679300,3.57167919921875,-1.1374311447143555,-0.14416420459747314,1.568701982498169
1772455997386273300,3.583273193359375,-1.1032226085662842,-0.11972958594560623,1.5503759384155273
1772455997394661600,3.59166162109375,-1.0543533563613892,-0.0806342139840126,1.519832730293274
1772455997404676000,3.601676025390625,-1.0054842233657837,-0.039095375686883926,1.4978415966033936
1772455997414652200,3.611652099609375,-0.9663888216018677,-0.00855211354792118,1.5149458646774292
1772455997424968000,3.621968017578125,-0.9297369122505188,0.018325956538319588,1.538158655166626
1772455997434647800,3.631647705078125,-0.8955284357070923,0.039095375686883926,1.5723671913146973
1772455997464672500,3.661672607421875,-0.8710938692092896,0.15393804013729095,1.6126842498779297
1772455997474650400,3.671650390625,-0.8625417351722717,0.21135938167572021,1.655444860458374
1772455997484663000,3.6816630859375,-0.8478809595108032,0.27122417092323303,1.722640037536621
1772455997494658800,3.691658935546875,-0.8295549750328064,0.32620203495025635,1.8069393634796143
1772455997504708600,3.70170849609375,-0.8234463334083557,0.36163222789764404,1.9083430767059326
1772455997514711800,3.7117119140625,-0.8258898258209229,0.39095374941825867,2.026850938796997
1772455997525699800,3.722699951171875,-0.8136724829673767,0.4447098970413208,2.1233675479888916
1772455997534758700,3.731758544921875,-0.7867944240570068,0.5070181488990784,2.2015583515167236
1772455997554796000,3.751796142578125,-0.7122688889503479,0.5852088928222656,2.326174736022949
1772455997564832300,3.761832275390625,-0.6524040699005127,0.616973876953125,2.375044107437134
1772455997574792700,3.771792724609375,-0.598647952079773,0.6426302194595337,2.3933699131011963
1772455997584789200,3.781789306640625,-0.5302310585975647,0.656069278717041,2.3273966312408447
1772455997594765600,3.791765625,-0.48380526900291443,0.6609562039375305,2.2382102012634277
1772455997604808000,3.801807861328125,-0.44104471802711487,0.6719517707824707,2.1343631744384766
1772455997614802400,3.811802490234375,-0.4092797040939331,0.6646214127540588,2.018298864364624
1772455997625128200,3.822128173828125,-0.375071257352829,0.6316346526145935,1.9132299423217773
1772455997634794500,3.83179443359375,-0.31520646810531616,0.5827654600143433,1.8777997493743896
1772455997644816600,3.841816650390625,-0.24678955972194672,0.5363397002220154,1.8484781980514526
1772455997664811800,3.861811767578125,-0.16004669666290283,0.4092797040939331,1.6786576509475708
1772455997674802400,3.871802490234375,-0.13927727937698364,0.34086281061172485,1.547932505607605
1772455997685456100,3.8824560546875,-0.12095131725072861,0.30054569244384766,1.4428637027740479
1772455997694813200,3.891813232421875,-0.11239920556545258,0.28955012559890747,1.3353514671325684
1772455997714837000,3.9118369140625,-0.10018189996480942,0.2834414839744568,1.1801916360855103
1772455997725182200,3.92218212890625,-0.07452555745840073,0.2590068578720093,1.216843605041504
1772455997734848300,3.93184814453125,-0.05864306539297104,0.2577851414680481,1.282817006111145
1772455997744881700,3.941881591796875,-0.05253441259264946,0.2638937830924988,1.379333734512329
1772455997754876400,3.95187646484375,-0.04398229718208313,0.2626720666885376,1.508837103843689
1772455997774897700,3.971897705078125,-0.05619960278272629,0.17959438264369965,1.8496999740600586
1772455997784917800,3.981917724609375,-0.07330382615327835,0.11362093687057495,1.9633208513259888
1772455997794913000,3.9919130859375,-0.09162978827953339,0.05375614017248154,2.0146336555480957
1772455997804942600,4.001942626953125,-0.11728613078594208,0.004886921960860491,2.009746551513672
1772455997814909000,4.011908935546875,-0.1466076523065567,-0.0354301854968071,1.9559905529022217
1772455997825225000,4.022224853515625,-0.16982053220272064,-0.07819075137376785,1.8777997493743896
1772455997834898000,4.03189794921875,-0.1966986060142517,-0.13316862285137177,1.7873916625976562
1772455997845524200,4.042524169921875,-0.27000242471694946,-0.2626720666885376,1.6041321754455566
1772455997854894300,4.051894287109375,-0.3738495409488678,-0.3689626157283783,1.540602207183838
1772455997867382000,4.064382080078125,-0.4508185386657715,-0.46181413531303406,1.5039502382278442
1772455997874905900,4.07190576171875,-0.49846604466438293,-0.5644394755363464,1.4379768371582031
1772455997884925400,4.081925537109375,-0.5607742667198181,-0.6976081132888794,1.4306464195251465
1772455997894901800,4.09190185546875,-0.6646214127540588,-0.8869763612747192,1.5015068054199219
1772455997904903700,4.101903564453125,-0.7586946487426758,-1.06657075881958,1.5540411472320557
1772455997914894800,4.111894775390625,-0.817337691783905,-1.2388347387313843,1.6285667419433594
1772455997925222100,4.12222216796875,-0.8478809595108032,-1.4135421514511108,1.6811012029647827
1772455997934870500,4.13187060546875,-0.8637634515762329,-1.578475832939148,1.6969836950302124
1772455997944877600,4.141877685546875,-0.8613200187683105,-1.7397441864013672,1.7397441864013672
1772455997954867500,4.151867431640625,-0.8381071090698242,-1.910786509513855,1.7983872890472412
1772455997964919300,4.161919189453125,-0.7623597979545593,-2.0696115493774414,1.8106045722961426
1772455997984914000,4.181913818359375,-0.5497786998748779,-2.3603832721710205,1.793500304222107
1772455997994907600,4.19190771484375,-0.39217549562454224,-2.5302038192749023,1.6676621437072754
1772455998005542100,4.202542236328125,-0.26633724570274353,-2.602285861968994,1.4343116283416748
1772455998014920400,4.21192041015625,-0.13927727937698364,-2.660928964614868,1.1313223838806152
1772455998026881300,4.22388134765625,-0.02932153269648552,-2.7293457984924316,0.8918632864952087
1772455998034933500,4.23193359375,0.0757472887635231,-2.8173105716705322,0.7122688889503479
1772455998044973800,4.241973876953125,0.18325957655906677,-2.9101619720458984,0.6352998614311218
1772455998054929700,4.2519296875,0.2883284091949463,-2.984687566757202,0.5705481171607971
1772455998064934000,4.261933837890625,0.3897320330142975,-3.039665460586548,0.5094616413116455
1772455998084956200,4.2819560546875,0.5729916095733643,-3.1056389808654785,0.5302310585975647
1772455998094935300,4.291935302734375,0.6401867866516113,-3.0860912799835205,0.475253164768219
1772455998104926700,4.3019267578125,0.6927211880683899,-3.009122133255005,0.35552358627319336
1772455998114921500,4.31192138671875,0.7293730974197388,-2.8955013751983643,0.28466320037841797
1772455998125265700,4.322265625,0.7110471725463867,-2.6035077571868896,0.4178318381309509
1772455998135252200,4.332252197265625,0.6682865619659424,-2.3078489303588867,0.5778785347938538
1772455998144928300,4.34192822265625,0.5852088928222656,-1.9511035680770874,0.6951646208763123
1772455998154910700,4.35191064453125,0.3933972120285034,-1.585806131362915,0.7220427393913269
1772455998165555000,4.362554931640625,0.251676470041275,-1.177748203277588,0.7574729323387146
1772455998187435300,4.384435302734375,0.18814650177955627,-0.39706242084503174,0.6963863968849182
1772455998194943200,4.391943115234375,0.16737708449363708,-0.09285151958465576,0.5412266254425049
1772455998204978700,4.401978759765625,0.12339477986097336,0.16004669666290283,0.38728857040405273
1772455998225273600,4.422273681640625,0.0024434609804302454,0.6572909951210022,0.21868975460529327
1772455998234957000,4.43195703125,-0.06230825558304787,0.93095862865448,0.1918116807937622
1772455998254972400,4.451972412109375,-0.13927727937698364,1.5112806558609009,0.2370157092809677
1772455998264994600,4.46199462890625,-0.11484266817569733,1.9181169271469116,0.34574973583221436
1772455998274983700,4.471983642578125,-0.08307767659425735,2.0867156982421875,0.375071257352829
1772455998295000300,4.492000244140625,-0.00366519158706069,2.135584831237793,0.3274237811565399
1772455998305004800,4.5020048828125,0.05253441259264946,2.0842721462249756,0.2638937830924988
1772455998314986200,4.511986328125,0.12095131725072861,2.020742177963257,0.2125810980796814
1772455998325943300,4.522943359375,0.18936823308467865,1.9559905529022217,0.15271630883216858
1772455998346618000,4.5436181640625,0.2577851414680481,1.7959438562393188,-0.04153883829712868
1772455998375049000,4.572049072265625,0.4141666293144226,1.1801916360855103,-0.3579670190811157
1772455998405112600,4.602112548828125,0.49235737323760986,-0.22113321721553802,-0.09407325088977814
1772455998415111200,4.612111083984375,0.39095374941825867,-0.5998696684837341,-0.04764748737215996
1772455998425450800,4.62245068359375,0.31520646810531616,-0.911410927772522,-0.013439035043120384
1772455998435147500,4.6321474609375,0.20891591906547546,-1.225395679473877,-0.012217304669320583
1772455998445169200,4.642169189453125,0.06719517707824707,-1.5601497888565063,-0.00366519158706069
1772455998455139600,4.6521396484375,-0.051312681287527084,-1.8777997493743896,-0.04398229718208313
1772455998465160400,4.662160400390625,-0.1270599663257599,-2.1343631744384766,-0.06230825558304787
1772455998475158800,4.67215869140625,-0.1771509200334549,-2.326174736022949,-0.024434609338641167
1772455998545280000,4.742280029296875,-0.4300491213798523,-2.03540301322937,-0.34574973583221436
1772455998555266000,4.75226611328125,-0.38606682419776917,-1.7092009782791138,-0.6059783101081848
1772455998565291500,4.76229150390625,-0.3127630054950714,-1.2999212741851807,-0.8014551997184753
1772455998575269600,4.77226953125,-0.2626720666885376,-0.8210029006004333,-0.9480628371238708
1772455998585270300,4.782270263671875,-0.26511552929878235,-0.29565876722335815,-0.9492846131324768
1772455998595246300,4.792246337890625,-0.30543261766433716,0.21502456068992615,-0.8038986921310425
1772455998605273600,4.802273681640625,-0.32009339332580566,0.6927211880683899,-0.5009095072746277
1772455998635266800,4.832266845703125,-0.13805554807186127,2.090380907058716,-0.17837265133857727
1772455998645917400,4.84291748046875,-0.039095375686883926,2.6780333518981934,-0.17959438264369965
1772455998655290600,4.85229052734375,-0.00366519158706069,2.7953193187713623,-0.1771509200334549
1772455998666946800,4.86394677734375,0.0757472887635231,2.919935941696167,-0.2125810980796814
1772455998675355100,4.872355224609375,0.10873401165008545,2.8515188694000244,-0.26145032048225403
1772455998685365200,4.882365234375,0.14782938361167908,2.6865854263305664,-0.3225368559360504
1772455998705355000,4.90235498046875,0.26633724570274353,2.1563544273376465,-0.3530801236629486
1772455998715373000,4.912373046875,0.3029891550540924,1.8643606901168823,-0.3689626157283783
1772455998725720600,4.922720458984375,0.3433062732219696,1.6090190410614014,-0.3176499307155609
1772455998735387400,4.932387451171875,0.384845107793808,1.359786033630371,-0.19914206862449646
1772455998765428500,4.962428466796875,0.31031954288482666,0.44104471802711487,0.2981022298336029
1772455998775395600,4.9723955078125,0.27488934993743896,0.1612684279680252,0.5253441333770752
1772455998785422300,4.98242236328125,0.26022860407829285,-0.08796459436416626,0.6230825781822205
1772455998795407000,4.992406982421875,0.26145032048225403,-0.5155702829360962,0.3494149148464203
1772455998806053600,5.0030537109375,0.24434609711170197,-0.8197811841964722,0.08185594528913498
1772455998815443000,5.01244287109375,0.22357667982578278,-1.0897835493087769,-0.23579397797584534
1772455998828348700,5.0253486328125,0.21502456068992615,-1.2803735733032227,-0.5192354321479797
1772455998845502500,5.04250244140625,0.21502456068992615,-1.5711454153060913,-0.34208452701568604
1772455998855495200,5.0524951171875,0.22357667982578278,-1.7079792022705078,-0.08918632566928864
1772455998865568800,5.06256884765625,0.24434609711170197,-1.7666223049163818,0.08307767659425735
1772455998885569300,5.0825693359375,0.26633724570274353,-1.587027907371521,0.31154128909111023
1772455998895573500,5.092573486328125,0.2590068578720093,-1.3939944505691528,0.2565633952617645
1772455998915592400,5.112592529296875,0.3188716471195221,-0.8930850028991699,-0.11362093687057495
1772455998925924400,5.12292431640625,0.3530801236629486,-0.46670106053352356,-0.4251621961593628
1772455998966281200,5.16328125,0.15027284622192383,0.31154128909111023,-0.27977627515792847
1772455998975674600,5.172674560546875,0.05619960278272629,0.48869219422340393,-0.1722639948129654
1772455998987300600,5.184300537109375,0.010995574295520782,0.6866125464439392,-0.1563815027475357
1772455998995696400,5.1926962890625,0.04886921867728233,0.9175195693969727,-0.25534167885780334
1772455999005714400,5.20271435546875,0.11362093687057495,1.1582005023956299,-0.39095374941825867
1772455999015706600,5.21270654296875,0.16737708449363708,1.3390166759490967,-0.4899139404296875
1772455999026072000,5.223072021484375,0.2028072625398636,1.4294246435165405,-0.5326744914054871
1772455999035733200,5.232733154296875,0.22846360504627228,1.3866641521453857,-0.5363397002220154
1772455999065800700,5.26280078125,0.4300491213798523,1.1020009517669678,-0.6939429044723511
1772455999075769000,5.27276904296875,0.5155702829360962,0.9944885969161987,-0.799011766910553
1772455999085787100,5.282787109375,0.5595525503158569,0.7843509912490845,-0.8747590184211731
1772455999095771000,5.29277099609375,0.5632177591323853,0.4495968222618103,-0.8686503767967224
1772455999115805200,5.31280517578125,0.5290092825889587,-0.24923302233219147,-0.66584312915802
1772455999126737200,5.323737060546875,0.4948008358478546,-0.5229006409645081,-0.504574716091156
1772455999135804000,5.332803955078125,0.4337143301963806,-0.8026769161224365,-0.3323107063770294
1772455999148336400,5.34533642578125,0.3274237811565399,-1.197295904159546,-0.010995574295520782
1772455999185903400,5.3829033203125,0.19425514340400696,-1.7214182615280151,0.1918116807937622
1772455999196273400,5.3932734375,0.23090706765651703,-1.813048005104065,-0.08429940044879913
1772455999205904400,5.402904296875,0.27977627515792847,-1.7971655130386353,-0.2993239760398865
1772455999215914800,5.412914794921875,0.3237585723400116,-1.6847662925720215,-0.48869219422340393
1772455999226301400,5.423301513671875,0.3384193480014801,-1.4563027620315552,-0.616973876953125
1772455999235948500,5.432948486328125,0.2993239760398865,-1.1410962343215942,-0.6609562039375305
1772455999245989600,5.44298974609375,0.22113321721553802,-0.8356636762619019,-0.4948008358478546
1772455999255970300,5.45297021484375,0.12461651116609573,-0.5852088928222656,-0.13561208546161652
1772455999266004200,5.463004150390625,0.004886921960860491,-0.37751471996307373,0.17470745742321014
1772455999307655000,5.504655029296875,-0.2883284091949463,0.7061602473258972,0.16004669666290283
1772455999316011800,5.51301171875,-0.27000242471694946,0.8246681094169617,0.14416420459747314
1772455999326343000,5.523343017578125,-0.2822197377681732,1.0506882667541504,0.14049901068210602
1772455999346101000,5.54310107421875,-0.37629300355911255,1.147204875946045,0.21624629199504852
1772455999356069000,5.553069091796875,-0.3530801236629486,1.1814134120941162,0.2076941877603531
1772455999366082300,5.563082275390625,-0.2687807083129883,1.1716395616531372,0.07330382615327835
1772455999386099700,5.583099609375,-0.04153883829712868,0.9663888216018677,-0.18448130786418915
1772455999396083000,5.5930830078125,0.04398229718208313,0.759916365146637,-0.2736676335334778
1772455999406090000,5.603090087890625,0.10995574295520782,0.5094616413116455,-0.26145032048225403
1772455999416064500,5.613064453125,0.16371189057826996,0.26145032048225403,-0.16371189057826996
1772455999426421800,5.623421875,0.19303341209888458,0.018325956538319588,-0.02076941914856434
1772455999446694700,5.643694580078125,0.17959438264369965,-0.7232644557952881,0.27000242471694946
1772455999456082000,5.65308203125,0.1368338167667389,-1.0152580738067627,0.28099802136421204
1772455999468596700,5.6655966796875,0.10018189996480942,-1.273043155670166,0.2687807083129883
1772455999486130200,5.683130126953125,0.03787364438176155,-1.6786576509475708,0.1417207419872284
1772455999496117200,5.6931171875,0.02932153269648552,-1.8154915571212769,0.2015855312347412
1772455999506145300,5.703145263671875,0.00733038317412138,-1.909564733505249,0.2919935882091522
1772455999516099000,5.71309912109375,-0.02076941914856434,-1.9413297176361084,0.32498031854629517
1772455999526410000,5.723409912109375,-0.05253441259264946,-1.8973474502563477,0.3787364661693573
1772455999536094700,5.7330947265625,-0.08552113175392151,-1.7629570960998535,0.42638394236564636
1772455999546125300,5.743125244140625,-0.1514945775270462,-1.5552629232406616,0.4056145250797272
1772455999566107000,5.76310693359375,-0.24190263450145721,-1.007927656173706,0.23090706765651703
1772455999576095200,5.77309521484375,-0.24190263450145721,-0.6499606370925903,0.10506882518529892
1772455999606734000,5.803734130859375,-0.2174680233001709,0.5717698931694031,0.059864792972803116
1772455999616126700,5.813126708984375,-0.26022860407829285,0.8845328688621521,0.07208210229873657
1772455999628046800,5.825046875,-0.2626720666885376,1.1423180103302002,0.019547687843441963
1772455999636140300,5.833140380859375,-0.2174680233001709,1.3622294664382935,-0.0659734457731247
1772455999646139600,5.8431396484375,-0.1661553531885147,1.5748106241226196,-0.17348572611808777
1772455999656117800,5.85311767578125,-0.11850785464048386,1.7470746040344238,-0.27000242471694946
1772455999666162700,5.86316259765625,-0.07330382615327835,1.8106045722961426,-0.3225368559360504
1772455999676110600,5.873110595703125,-0.039095375686883926,1.7666223049163818,-0.34208452701568604
1772455999686112800,5.88311279296875,-0.006108652334660292,1.6578882932662964,-0.33597588539123535
1772455999716121900,5.913121826171875,0.12095131725072861,1.1423180103302002,-0.04398229718208313
1772455999726438100,5.923438232421875,0.1466076523065567,0.769690215587616,0.13561208546161652
1772455999736113200,5.933113037109375,0.1563815027475357,0.5119050741195679,0.2272418737411499
1772455999756104200,5.953104248046875,0.15271630883216858,-0.036651913076639175,0.08185594528913498
1772455999766718200,5.96371826171875,0.15393804013729095,-0.3090978264808655,-0.12461651116609573
1772455999776111000,5.973111083984375,0.1563815027475357,-0.5864306092262268,-0.32986724376678467
1772455999788620500,5.98562060546875,0.13805554807186127,-0.8393288254737854,-0.4129449129104614
1772455999816098000,6.01309814453125,0.03420845419168472,-1.2852604389190674,0.05742133408784866
1772455999826451200,6.023451171875,-0.00733038317412138,-1.3377948999404907,0.24556782841682434
1772455999836103700,6.033103759765625,-0.059864792972803116,-1.3048081398010254,0.3323107063770294
1772455999856103200,6.053103271484375,-0.17470745742321014,-1.036027431488037,0.28466320037841797
1772455999866135000,6.063135009765625,-0.18570303916931152,-0.6279694437980652,0.05375614017248154
1772455999876110800,6.07311083984375,-0.16982053220272064,-0.3029891550540924,-0.05742133408784866
1772455999886123000,6.083123046875,-0.1869247704744339,0.024434609338641167,-0.12461651116609573
1772455999896099000,6.09309912109375,-0.22968533635139465,0.3237585723400116,-0.1258382350206375
1772455999916086800,6.113086669921875,-0.3396410644054413,0.7586946487426758,0.00733038317412138
1772455999927030500,6.124030517578125,-0.41172316670417786,0.978606104850769,0.06475171446800232
1772455999936097300,6.13309716796875,-0.46181413531303406,1.2400563955307007,0.10995574295520782
1772455999947776800,6.14477685546875,-0.48869219422340393,1.4685200452804565,0.18570303916931152
1772455999956109000,6.153109130859375,-0.513126790523529,1.568701982498169,0.27611109614372253
1772455999966113000,6.163113037109375,-0.5119050741195679,1.588249683380127,0.3445279896259308
1772455999976104000,6.17310400390625,-0.4996877610683441,1.585806131362915,0.38606682419776917
1772455999986144800,6.183144775390625,-0.4703662395477295,1.5564846992492676,0.3738495409488678
1772455999996102700,6.1931025390625,-0.4043927788734436,1.4819591045379639,0.2968805134296417
1772456000016180000,6.213179931640625,-0.18936823308467865,1.0775662660598755,0.025656340643763542
1772456000026485800,6.22348583984375,-0.10506882518529892,0.8674286603927612,-0.0354301854968071
1772456000036129500,6.233129638671875,-0.00855211354792118,0.6633996367454529,-0.05619960278272629
1772456000046130000,6.2431298828125,0.09529497474431992,0.4642575979232788,-0.012217304669320583
1772456000056103200,6.253103271484375,0.18448130786418915,0.2590068578720093,0.02321287989616394
1772456000066165000,6.2631650390625,0.24923302233219147,0.04398229718208313,-0.0012217304902151227
1772456000076123000,6.273122802734375,0.3066543638706207,-0.17470745742321014,-0.05619960278272629
1772456000086740000,6.283739990234375,0.35674530267715454,-0.3799581825733185,-0.07208210229873657
1772456000096117200,6.2931171875,0.3799581825733185,-0.5546656250953674,-0.09407325088977814
1772456000126465800,6.3234658203125,0.2871066629886627,-0.9578366875648499,0.12339477986097336
1772456000136145700,6.333145751953125,0.21502456068992615,-0.9834930300712585,0.16982053220272064
1772456000146189000,6.34318896484375,0.1368338167667389,-0.9822713136672974,0.22846360504627228
1772456000166180900,6.363180908203125,0.019547687843441963,-0.8674286603927612,0.1514945775270462
1772456000176175400,6.37317529296875,-0.025656340643763542,-0.7428121566772461,0.04886921867728233
1772456000186226700,6.383226806640625,-0.042760565876960754,-0.5644394755363464,-0.14294247329235077
1772456000196188400,6.3931884765625,-0.0354301854968071,-0.33719760179519653,-0.3701843321323395
1772456000206200600,6.40320068359375,0.0024434609804302454,-0.08674286305904388,-0.5253441333770752
1772456000226538500,6.42353857421875,0.08918632566928864,0.4239404797554016,-0.7244861721992493
1772456000236191500,6.43319140625,0.09896016865968704,0.6780604124069214,-0.6939429044723511
1772456000246808000,6.44380810546875,0.10384709388017654,0.9236282706260681,-0.5876523852348328
1772456000256188700,6.453188720703125,0.1270599663257599,1.1520918607711792,-0.4386012554168701
1772456000267814100,6.464814208984375,0.12950342893600464,1.3341296911239624,-0.22113321721553802
1772456000276200400,6.473200439453125,0.12950342893600464,1.3341296911239624,-0.08429940044879913
1772456000286211300,6.48321142578125,0.13072516024112701,1.2864822149276733,0.00855211354792118
1772456000296201000,6.493200927734375,0.12339477986097336,1.215621829032898,0.04153883829712868
1772456000306271500,6.503271484375,0.1258382350206375,1.1215485334396362,0.021991148591041565
1772456000316237600,6.513237548828125,0.15027284622192383,0.9944885969161987,-0.04398229718208313
1772456000336266500,6.5332666015625,0.21624629199504852,0.6194173693656921,-0.2773328125476837
1772456000346321700,6.54332177734375,0.25534167885780334,0.39095374941825867,-0.39095374941825867
1772456000356298800,6.553298828125,0.28099802136421204,0.16737708449363708,-0.5375614166259766
1772456000366311700,6.563311767578125,0.3029891550540924,-0.06108652427792549,-0.6621779203414917
1772456000376297200,6.573297119140625,0.304210901260376,-0.31642818450927734,-0.7354817390441895
1772456000386350800,6.583350830078125,0.2638937830924988,-0.6023131608963013,-0.7342600226402283
1772456000396322800,6.59332275390625,0.20036379992961884,-0.8833111524581909,-0.7183775305747986
1772456000406959000,6.603958984375,0.09773843735456467,-1.2388347387313843,-0.7367035150527954
1772456000416369000,6.613368896484375,0.0403171069920063,-1.4220943450927734,-0.6890559792518616
1772456000436756700,6.6337568359375,-0.051312681287527084,-1.6847662925720215,-0.31154128909111023
1772456000446421500,6.64342138671875,-0.0708603709936142,-1.7397441864013672,-0.015882495790719986
1772456000456418600,6.65341845703125,-0.09896016865968704,-1.7556266784667969,0.21624629199504852
1772456000466447400,6.663447265625,-0.1563815027475357,-1.7214182615280151,0.304210901260376
1772456000476411000,6.673410888671875,-0.21013765037059784,-1.6029103994369507,0.3090978264808655
1772456000486436600,6.6834365234375,-0.20525072515010834,-1.4037683010101318,0.2382374405860901
1772456000506492700,6.70349267578125,-0.10506882518529892,-0.8429940342903137,-0.06475171446800232
1772456000516462600,6.713462646484375,-0.08674286305904388,-0.5082398653030396,-0.13072516024112701
1772456000536482800,6.73348291015625,-0.0659734457731247,0.3481931984424591,0.18814650177955627
1772456000546756600,6.743756591796875,-0.07330382615327835,0.636521577835083,0.3494149148464203
1772456000556502300,6.753502197265625,-0.09773843735456467,0.9187413454055786,0.46670106053352356
1772456000567126800,6.764126708984375,-0.10506882518529892,1.1911872625350952,0.5681046843528748
1772456000576511000,6.773510986328125,-0.10262536257505417,1.4098769426345825,0.6218608021736145
1772456000588179700,6.7851796875,-0.08429940044879913,1.5430456399917603,0.618195652961731
1772456000596533200,6.793533203125,-0.051312681287527084,1.598023533821106,0.5595525503158569
1772456000606540500,6.80354052734375,-0.0354301854968071,1.598023533821106,0.43249258399009705
1772456000616521500,6.813521484375,-0.012217304669320583,1.5711454153060913,0.3029891550540924
1772456000626870300,6.823870361328125,0.02321287989616394,1.5112806558609009,0.16737708449363708
1772456000666560500,6.863560546875,0.14416420459747314,0.8100073337554932,-0.2272418737411499
1772456000676529400,6.873529296875,0.1661553531885147,0.4105014503002167,-0.08918632566928864
1772456000686553000,6.883552978515625,0.17470745742321014,0.08552113175392151,0.05375614017248154
1772456000696553200,6.89355322265625,0.15027284622192383,-0.25045475363731384,0.18570303916931152
1772456000706590500,6.903590576171875,0.08674286305904388,-0.5693264007568359,0.2932153046131134
1772456000716558800,6.913558837890625,0.04398229718208313,-0.8417723178863525,0.37751471996307373
1772456000727495400,6.924495361328125,0.013439035043120384,-1.0653489828109741,0.394618958234787
1772456000736588500,6.933588623046875,-0.009773843921720982,-1.243721604347229,0.3836233615875244
1772456000749126100,6.946126220703125,-0.02932153269648552,-1.4159855842590332,0.504574716091156
1772456000756638700,6.953638671875,-0.02932153269648552,-1.451415777206421,0.5619960427284241
1772456000766654200,6.963654296875,-0.025656340643763542,-1.4868459701538086,0.6291912198066711
1772456000776642600,6.973642578125,-0.04886921867728233,-1.4795156717300415,0.646295428276062
1772456000786679300,6.98367919921875,-0.10506882518529892,-1.4147639274597168,0.6450737118721008
1772456000796643800,6.993643798828125,-0.18081611394882202,-1.2791517972946167,0.5497786998748779
1772456000806654200,7.003654296875,-0.26511552929878235,-0.9553932547569275,0.2993239760398865
1772456000816664300,7.013664306640625,-0.27977627515792847,-0.675616979598999,0.17592918872833252
1772456000826999800,7.023999755859375,-0.2932153046131134,-0.35552358627319336,0.12950342893600464
1772456000836661500,7.03366162109375,-0.32986724376678467,-0.02076941914856434,0.13072516024112701
1772456000856660500,7.053660400390625,-0.43615779280662537,0.6524040699005127,0.2687807083129883
1772456000866695700,7.06369580078125,-0.4691445231437683,0.9773843884468079,0.38240164518356323
1772456000876659200,7.0736591796875,-0.5143485069274902,1.2901474237442017,0.4495968222618103
1772456000887286800,7.084286865234375,-0.5583308339118958,1.5442672967910767,0.4960225820541382
1772456000908290000,7.1052900390625,-0.5632177591323853,1.881464958190918,0.45204028487205505
1772456000927018800,7.124018798828125,-0.46181413531303406,1.9425514936447144,0.20402899384498596
1772456000936709000,7.133709228515625,-0.3799581825733185,1.9254472255706787,-0.03176499158143997
1772456000946741800,7.14374169921875,-0.2431243658065796,1.7702875137329102,-0.3701843321323395
1772456000966719000,7.163718994140625,-0.042760565876960754,1.2901474237442017,-0.5461135506629944
1772456000976714800,7.17371484375,0.05497787147760391,0.9896016716957092,-0.42638394236564636
1772456000986762500,7.183762451171875,0.12950342893600464,0.6707300543785095,-0.26511552929878235
1772456000996720400,7.193720458984375,0.17959438264369965,0.3543018400669098,-0.1062905490398407
1772456001006726700,7.2037265625,0.21013765037059784,0.05009094998240471,0.0354301854968071
1772456001016717300,7.21371728515625,0.2370157092809677,-0.2565633952617645,0.08918632566928864
1772456001027047700,7.224047607421875,0.26511552929878235,-0.5681046843528748,0.00733038317412138
1772456001036709600,7.233709716796875,0.28466320037841797,-0.8796459436416626,-0.1466076523065567
1772456001069227800,7.266227783203125,0.2223549485206604,-1.7116444110870361,-0.7049384713172913
1772456001076742700,7.27374267578125,0.18081611394882202,-1.8289304971694946,-0.6743952035903931
1772456001086764800,7.283764892578125,0.14782938361167908,-1.8643606901168823,-0.5180137157440186
1772456001096765700,7.293765625,0.13561208546161652,-1.8350391387939453,-0.2064724564552307
1772456001106800400,7.30380029296875,0.12339477986097336,-1.7507398128509521,0.04153883829712868
1772456001116765200,7.31376513671875,0.09407325088977814,-1.6126842498779297,0.17592918872833252
1772456001127117300,7.324117431640625,0.03787364438176155,-1.4465289115905762,0.25045475363731384
1772456001136814600,7.333814697265625,-0.018325956538319588,-1.2596040964126587,0.18570303916931152
1772456001146820400,7.3438203125,-0.036651913076639175,-1.0152580738067627,0.012217304669320583
1772456001156775200,7.353775146484375,-0.03298672288656235,-0.7000515460968018,-0.2174680233001709
1772456001207375600,7.404375732421875,-0.11362093687057495,1.3487904071807861,-0.18448130786418915
1772456001216793600,7.413793701171875,-0.15515977144241333,1.6224581003189087,-0.06108652427792549
1772456001228778200,7.4257783203125,-0.2015855312347412,1.8069393634796143,0.00366519158706069
1772456001236833500,7.43383349609375,-0.2076941877603531,1.9058995246887207,-0.015882495790719986
1772456001246839600,7.443839599609375,-0.1612684279680252,1.949881911277771,-0.10873401165008545
1772456001256825300,7.453825439453125,-0.09651670604944229,1.9242255687713623,-0.2028072625398636
1772456001266852000,7.46385205078125,-0.05375614017248154,1.8106045722961426,-0.3139847218990326
1772456001276837400,7.47383740234375,-0.010995574295520782,1.645671010017395,-0.4153883755207062
1772456001296850000,7.493849853515625,0.1417207419872284,1.33168625831604,-0.5412266254425049
1772456001306884900,7.503884765625,0.26145032048225403,1.1410962343215942,-0.45204028487205505
1772456001327186700,7.524186767578125,0.34208452701568604,0.5106833577156067,-0.30054569244384766
1772456001346954800,7.543954833984375,0.2932153046131134,-0.384845107793808,-0.3836233615875244
1772456001356923000,7.5539228515625,0.24556782841682434,-0.720820963382721,-0.49724429845809937
1772456001367552800,7.564552734375,0.20036379992961884,-1.0800096988677979,-0.618195652961731
1772456001376953000,7.573953125,0.16004669666290283,-1.4086552858352661,-0.7220427393913269
1772456001396975400,7.593975341796875,0.013439035043120384,-1.8961256742477417,-0.5949827432632446
1772456001406988500,7.603988525390625,-0.05009094998240471,-2.065946340560913,-0.2382374405860901
1772456001417015000,7.61401513671875,-0.07208210229873657,-2.1368067264556885,-0.010995574295520782
1772456001427355400,7.62435546875,-0.08796459436416626,-2.098932981491089,0.2626720666885376
1772456001437029600,7.634029541015625,-0.10506882518529892,-1.977981686592102,0.33108896017074585
1772456001447028500,7.644028564453125,-0.12217304855585098,-1.8057177066802979,0.30543261766433716
1772456001457037300,7.654037353515625,-0.10873401165008545,-1.6200146675109863,0.2480112910270691
1772456001467081700,7.664081787109375,-0.06108652427792549,-1.4123204946517944,0.01710422709584236
1772456001477048800,7.674048828125,0.012217304669320583,-0.9224064946174622,-0.6426302194595337
1772456001497090800,7.6940908203125,0.17104226350784302,0.10384709388017654,-0.988379955291748
1772456001507122400,7.704122314453125,0.22357667982578278,0.6279694437980652,-0.9517280459403992
1772456001517097000,7.714096923828125,0.22968533635139465,1.0543533563613892,-0.8307767510414124
1772456001528025000,7.725025146484375,0.21135938167572021,1.359786033630371,-0.6524040699005127
1772456001537100800,7.734100830078125,0.1820378452539444,1.5735888481140137,-0.4715879559516907
1772456001548703000,7.745702880859375,0.16982053220272064,1.7165313959121704,-0.2919935882091522
1772456001557083100,7.754083251953125,0.2015855312347412,1.8301522731781006,-0.20036379992961884
1772456001567093200,7.76409326171875,0.251676470041275,1.8851301670074463,-0.2064724564552307
1772456001577079300,7.774079345703125,0.2834414839744568,1.8472565412521362,-0.2675589919090271
1772456001607086600,7.804086669921875,0.34086281061172485,1.1899654865264893,-0.16249015927314758
1772456001617106200,7.814106201171875,0.37140607833862305,0.7061602473258972,0.21380282938480377
1772456001627448600,7.824448486328125,0.36163222789764404,0.32009339332580566,0.43249258399009705
1772456001637098500,7.834098388671875,0.33475416898727417,-0.036651913076639175,0.5314527750015259
1772456001647101200,7.84410107421875,0.32620203495025635,-0.3885102868080139,0.4740314185619354
1772456001657099500,7.854099609375,0.32498031854629517,-0.7489207983016968,0.3139847218990326
1772456001667122000,7.864121826171875,0.3139847218990326,-1.0873401165008545,0.051312681287527084
1772456001677076500,7.874076416015625,0.2919935882091522,-1.398881435394287,-0.21502456068992615
1772456001687691800,7.88469189453125,0.2590068578720093,-1.655444860458374,-0.47769662737846375
1772456001717112600,7.914112548828125,0.07452555745840073,-2.1697933673858643,-0.616973876953125
1772456001737126400,7.93412646484375,-0.030543262138962746,-2.305405378341675,-0.2223549485206604
1772456001747168500,7.94416845703125,-0.08674286305904388,-2.2369885444641113,0.16371189057826996
1772456001757150200,7.954150146484375,-0.14049901068210602,-2.1123719215393066,0.3323107063770294
1772456001767169800,7.964169677734375,-0.2064724564552307,-1.9437731504440308,0.4508185386657715
1772456001777169000,7.9741689453125,-0.25534167885780334,-1.7299703359603882,0.4899139404296875
1772456001787206700,7.98420654296875,-0.27977627515792847,-1.4660766124725342,0.4056145250797272
1772456001797169000,7.9941689453125,-0.30054569244384766,-1.1337659358978271,0.18448130786418915
1772456001827519700,8.024519775390624,-0.27488934993743896,0.16493362188339233,-0.18081611394882202
1772456001837180200,8.03418017578125,-0.23579397797584534,0.5717698931694031,-0.09529497474431992
1772456001847803600,8.0448037109375,-0.23457226157188416,0.9272934198379517,0.021991148591041565
1772456001857213200,8.054213134765625,-0.28466320037841797,1.2315043210983276,0.14049901068210602
1772456001868886500,8.065886474609375,-0.35674530267715454,1.6004669666290283,0.22479841113090515
1772456001877226800,8.074226806640626,-0.35063666105270386,1.7641788721084595,0.22357667982578278
1772456001887244800,8.084244873046876,-0.3139847218990326,1.8460347652435303,0.16004669666290283
1772456001897242600,8.09424267578125,-0.26633724570274353,1.8484781980514526,0.051312681287527084
1772456001907277300,8.10427734375,-0.20525072515010834,1.7715091705322266,-0.0757472887635231
1772456001927573500,8.124573486328124,-0.06841690838336945,1.3866641521453857,-0.2724458873271942
1772456001937266000,8.134265869140625,0.00855211354792118,1.1215485334396362,-0.2981022298336029
1772456001947326000,8.144325927734375,0.09040805697441101,0.8698720932006836,-0.2382374405860901
1772456001957297200,8.154297119140624,0.15882496535778046,0.6047565937042236,-0.09162978827953339
1772456001977323000,8.174322998046875,0.2272418737411499,-0.030543262138962746,0.24923302233219147
1772456001997353700,8.194353759765624,0.2321287989616394,-0.6426302194595337,0.2431243658065796
1772456002007991800,8.20499169921875,0.2431243658065796,-1.0311405658721924,0.021991148591041565
1772456002030265000,8.22726513671875,0.19547687470912933,-1.5051720142364502,-0.41172316670417786
1772456002037706200,8.234706298828126,0.1514945775270462,-1.6774359941482544,-0.4043927788734436
1772456002047503000,8.244503173828125,0.09651670604944229,-1.7751743793487549,-0.18814650177955627
1772456002057501000,8.2545009765625,0.02321287989616394,-1.8313740491867065,0.17837265133857727
1772456002067538400,8.264538330078125,-0.05009094998240471,-1.8484781980514526,0.5192354321479797
1772456002077515000,8.274514892578125,-0.11362093687057495,-1.8167132139205933,0.7953465580940247
1772456002087540700,8.284540771484375,-0.19058994948863983,-1.7250834703445435,0.9419541954994202
1772456002097539600,8.29453955078125,-0.24068090319633484,-1.5919147729873657,0.8833111524581909
1772456002107580200,8.304580078125,-0.23457226157188416,-1.3976596593856812,0.6218608021736145
1772456002117549300,8.31454931640625,-0.1966986060142517,-1.1191051006317139,0.23579397797584534
1772456002137553700,8.3345537109375,-0.07819075137376785,-0.3738495409488678,-0.32498031854629517
1772456002147591400,8.34459130859375,-0.012217304669320583,0.2370157092809677,-0.40683624148368835
1772456002157553000,8.354552978515626,-0.013439035043120384,0.6047565937042236,-0.2773328125476837
1772456002168170200,8.365170166015625,-0.05253441259264946,0.93095862865448,-0.10384709388017654
1772456002177560000,8.37456005859375,-0.10262536257505417,1.224173903465271,0.10384709388017654
1772456002189193700,8.38619384765625,-0.14905111491680145,1.49906325340271,0.2541199326515198
1772456002197582000,8.39458203125,-0.1722639948129654,1.7458528280258179,0.2932153046131134
1772456002207591200,8.404591064453125,-0.15393804013729095,1.93766450881958,0.26022860407829285
1772456002217581800,8.414581787109375,-0.11972958594560623,2.070833206176758,0.1820378452539444
1772456002227923500,8.42492333984375,-0.1014036312699318,2.135584831237793,0.11484266817569733
1772456002257609200,8.454609130859374,-0.07819075137376785,1.8252654075622559,-0.09407325088977814
1772456002277611000,8.474611083984374,0.010995574295520782,1.2315043210983276,-0.12217304855585098
1772456002297641000,8.494640869140625,0.14049901068210602,0.6902777552604675,0.04886921867728233
1772456002307678500,8.504678466796875,0.17959438264369965,0.34697145223617554,0.11239920556545258
1772456002317645600,8.5146455078125,0.19058994948863983,-0.004886921960860491,0.06841690838336945
1772456002328576300,8.525576171875,0.18448130786418915,-0.3481931984424591,-0.05253441259264946
1772456002337677000,8.534677001953124,0.16004669666290283,-0.6731734871864319,-0.18325957655906677
1772456002350193200,8.547193115234375,0.07330382615327835,-1.1007791757583618,-0.3628539443016052
1772456002367719700,8.5647197265625,0.00366519158706069,-1.4367550611495972,-0.41661009192466736
1772456002377719800,8.5747197265625,-0.05009094998240471,-1.5906931161880493,-0.30543261766433716
1772456002387756500,8.584756591796875,-0.09773843735456467,-1.6872098445892334,-0.07330382615327835
1772456002407752200,8.604752197265626,-0.15760323405265808,-1.6896532773971558,0.35674530267715454
1772456002428133000,8.625133056640625,-0.22968533635139465,-1.3646728992462158,0.2638937830924988
1772456002437802000,8.634802001953124,-0.25045475363731384,-1.1020009517669678,0.10873401165008545
1772456002447824600,8.64482470703125,-0.24434609711170197,-0.769690215587616,-0.10384709388017654
1772456002457826600,8.65482666015625,-0.22357667982578278,-0.3933972120285034,-0.2382374405860901
1772456002477858600,8.674858642578124,-0.19058994948863983,0.35185837745666504,-0.2638937830924988
1772456002488488000,8.685488037109375,-0.19792033731937408,0.6866125464439392,-0.1966986060142517
1772456002497888800,8.694888671875,-0.23945917189121246,0.998153805732727,-0.14049901068210602
1772456002509555200,8.70655517578125,-0.28588494658470154,1.4086552858352661,-0.05742133408784866
1772456002517915400,8.714915283203124,-0.28466320037841797,1.5271631479263306,-0.02321287989616394
1772456002528260600,8.725260498046875,-0.2577851414680481,1.7250834703445435,0.019547687843441963
1772456002537965800,8.7349658203125,-0.20891591906547546,1.8496999740600586,0.03420845419168472
1772456002548007700,8.745007568359375,-0.12828169763088226,1.870469331741333,0.025656340643763542
1772456002557980200,8.754980224609374,-0.08552113175392151,1.7751743793487549,-0.024434609338641167
1772456002568007000,8.7650068359375,-0.04398229718208313,1.6126842498779297,-0.07819075137376785
1772456002598042400,8.79504248046875,0.15027284622192383,1.0067058801651,-0.2590068578720093
1772456002608063700,8.805063720703124,0.2370157092809677,0.779464066028595,-0.19303341209888458
1772456002618056400,8.815056396484374,0.31520646810531616,0.5057964324951172,-0.06230825558304787
1772456002628413400,8.825413330078124,0.3481931984424591,0.18325957655906677,0.004886921960860491
1772456002638080000,8.835080078125,0.35185837745666504,-0.16737708449363708,0.00733038317412138
1772456002648710400,8.84571044921875,0.3433062732219696,-0.5070181488990784,-0.019547687843441963
1772456002718190600,8.915190673828125,0.1612684279680252,-1.7751743793487549,0.06230825558304787
1772456002728534800,8.92553466796875,0.13561208546161652,-1.7287486791610718,0.11484266817569733
1772456002738228500,8.935228515625,0.09285151958465576,-1.6420058012008667,0.14294247329235077
1772456002748276700,8.94527685546875,0.03298672288656235,-1.5271631479263306,0.09162978827953339
1772456002758253800,8.95525390625,-0.013439035043120384,-1.3622294664382935,-0.06230825558304787
1772456002768288000,8.9652880859375,-0.018325956538319588,-1.1386528015136719,-0.25045475363731384
1772456002788334000,8.985333984375,0.010995574295520782,-0.5302310585975647,-0.3677408695220947
1772456002818360600,9.015360595703125,-0.02321287989616394,0.7183775305747986,0.04764748737215996
1772456002830289700,9.02728955078125,-0.024434609338641167,1.0311405658721924,0.1319468915462494
1772456002838410000,9.035409912109374,-0.02076941914856434,1.3292428255081177,0.1319468915462494
1772456002848443600,9.045443603515626,-0.0354301854968071,1.5894713401794434,0.08918632566928864
1772456002858455000,9.055455078125,-0.021991148591041565,1.7751743793487549,0.04153883829712868
1772456002868524500,9.065524658203126,0.0354301854968071,1.8765780925750732,-0.018325956538319588
1772456002878510600,9.075510498046874,0.10751228034496307,1.9120081663131714,-0.12339477986097336
1772456002888538600,9.08553857421875,0.17348572611808777,1.8936822414398193,-0.20402899384498596
1772456002898546200,9.095546142578126,0.19914206862449646,1.7959438562393188,-0.2871066629886627
1772456002918591700,9.115591796875,0.20402899384498596,1.470963478088379,-0.6438519954681396
1772456002928929500,9.125929443359375,0.31642818450927734,1.1606439352035522,-0.675616979598999
1772456002938624800,9.135624755859375,0.42271876335144043,0.8478809595108032,-0.4960225820541382
1772456002948669400,9.14566943359375,0.4764748811721802,0.47769662737846375,-0.294437050819397
1772456002958655500,9.155655517578126,0.4288274049758911,0.11850785464048386,-0.11362093687057495
1772456002978689000,9.17568896484375,0.24556782841682434,-0.5363397002220154,0
1772456002988735000,9.18573486328125,0.1661553531885147,-0.8759807348251343,-0.06841690838336945
1772456002998716200,9.195716064453125,0.09285151958465576,-1.177748203277588,-0.20525072515010834
1772456003038774300,9.235774169921875,-0.07330382615327835,-1.8973474502563477,-0.14049901068210602
1772456003078829800,9.275829833984375,-0.1319468915462494,-1.5821410417556763,0.39706242084503174
1772456003088865500,9.285865478515625,-0.1319468915462494,-1.3878858089447021,0.2577851414680481
1772456003118900200,9.315900146484376,-0.015882495790719986,-0.3995058834552765,-0.23457226157188416
1772456003148987000,9.34598681640625,0.006108652334660292,0.7953465580940247,-0.0354301854968071
1772456003158996700,9.355996826171875,-0.00366519158706069,1.1252137422561646,0.09162978827953339
1772456003169046800,9.366046875,-0.024434609338641167,1.4379768371582031,0.2321287989616394
1772456003189067800,9.38606787109375,0.0024434609804302454,1.8203784227371216,0.3066543638706207
1772456003209129200,9.406129150390624,0.09040805697441101,1.949881911277771,0.10506882518529892
1772456003249265400,9.446265380859375,0.21013765037059784,1.4526375532150269,-0.4031710624694824
1772456003259240200,9.456240234375,0.23579397797584534,1.2498302459716797,-0.31154128909111023
1772456003269287000,9.466286865234375,0.25045475363731384,1.0103710889816284,-0.09529497474431992
1772456003279272700,9.476272705078125,0.2480112910270691,0.7012733221054077,0.11728613078594208
1772456003289346000,9.486345947265624,0.21868975460529327,0.37751471996307373,0.2577851414680481
1772456003299330000,9.496330078125,0.18448130786418915,0.06108652427792549,0.3188716471195221
1772456003309372700,9.50637255859375,0.16004669666290283,-0.24434609711170197,0.23579397797584534
1772456003339430100,9.53643017578125,0.05742133408784866,-1.2620476484298706,-0.2932153046131134
1772456003369525200,9.566525146484375,-0.10751228034496307,-1.7690657377243042,-0.19058994948863983
1772456003389540000,9.5865400390625,-0.15882496535778046,-1.7959438562393188,0.30054569244384766
1772456003399528400,9.596528564453125,-0.16737708449363708,-1.7348573207855225,0.5461135506629944
1772456003409606000,9.60660595703125,-0.1966986060142517,-1.6285667419433594,0.6401867866516113
1772456003419583700,9.616583740234375,-0.23457226157188416,-1.4953981637954712,0.7391469478607178
1772456003429945000,9.626945068359374,-0.2565633952617645,-1.3084733486175537,0.6768386960029602
1772456003439620600,9.63662060546875,-0.2528982162475586,-1.0482447147369385,0.45204028487205505
1772456003469731800,9.66673193359375,-0.11239920556545258,0.23457226157188416,-0.14905111491680145
1772456003479719000,9.676718994140625,-0.09285151958465576,0.5962044596672058,-0.1466076523065567
1772456003489790200,9.686790283203125,-0.10506882518529892,0.9199630618095398,-0.06963863968849182
1772456003499763700,9.696763671875,-0.1160643994808197,1.2034045457839966,0.0659734457731247
1772456003509804800,9.7068046875,-0.11362093687057495,1.451415777206421,0.21868975460529327
1772456003519787500,9.71678759765625,-0.10384709388017654,1.6297885179519653,0.32131510972976685
1772456003530159000,9.7271591796875,-0.0806342139840126,1.7654005289077759,0.32009339332580566
1772456003569943000,9.766943115234374,0.09040805697441101,1.8277088403701782,-0.0757472887635231
1772456003579919400,9.77691943359375,0.14538592100143433,1.6578882932662964,-0.41172316670417786
1772456003589968600,9.78696875,0.20402899384498596,1.5149458646774292,-0.5436700582504272
1772456003610031000,9.807031005859375,0.34697145223617554,1.0335839986801147,-0.21624629199504852
1772456003620037400,9.817037353515625,0.3530801236629486,0.66584312915802,-0.11972958594560623
1772456003630397700,9.827397705078125,0.32498031854629517,0.28955012559890747,-0.051312681287527084
1772456003640099000,9.83709912109375,0.3029891550540924,-0.04398229718208313,-0.051312681287527084
1772456003670181000,9.86718115234375,0.19058994948863983,-0.9541715383529663,-0.5729916095733643
1772456003690250500,9.88725048828125,0.11484266817569733,-1.5137240886688232,-0.8381071090698242
1772456003700240000,9.897239990234375,0.05864306539297104,-1.6994271278381348,-0.7611380815505981
1772456003710278000,9.90727783203125,0.00733038317412138,-1.872912883758545,-0.5412266254425049
1772456003740352000,9.93735205078125,0.05375614017248154,-1.8093829154968262,0.13439035415649414
1772456003750392800,9.947392822265625,0.0403171069920063,-1.6884315013885498,0.09651670604944229
1772456003770464500,9.967464599609375,0.030543262138962746,-1.3634512424468994,-0.09040805697441101
1772456003780465700,9.977465576171875,0.06108652427792549,-1.0946705341339111,-0.3188716471195221
1772456003790496500,9.98749658203125,0.10384709388017654,-0.7513642311096191,-0.4544837474822998
1772456003800501200,9.997501220703125,0.1258382350206375,-0.3701843321323395,-0.4386012554168701
1772456003810550300,10.00755029296875,0.12828169763088226,0.02321287989616394,-0.33108896017074585
1772456003820530700,10.01753076171875,0.12217304855585098,0.41661009192466736,-0.18570303916931152
1772456003830872000,10.0278720703125,0.08796459436416626,0.96883225440979,0.13561208546161652
1772456003840567300,10.0375673828125,0.05864306539297104,1.3072515726089478,0.3029891550540924
1772456003850618600,10.04761865234375,0.03787364438176155,1.577254056930542,0.3494149148464203
1772456003860606000,10.05760595703125,0.03787364438176155,1.7763961553573608,0.32986724376678467
1772456003880639000,10.077638916015625,0.1111774742603302,2.048841953277588,0.2125810980796814
1772456003890686200,10.087686279296875,0.15271630883216858,2.090380907058716,0.07208210229873657
1772456003900669200,10.097669189453125,0.16371189057826996,2.0476202964782715,-0.1111774742603302
1772456003910697500,10.107697509765625,0.1771509200334549,1.9437731504440308,-0.33108896017074585
1772456003920692200,10.117692138671876,0.21624629199504852,1.7910568714141846,-0.5204572081565857
1772456003931057700,10.1280576171875,0.3017674386501312,1.587027907371521,-0.5632177591323853
1772456003940732200,10.137732177734375,0.3995058834552765,1.3182471990585327,-0.3445279896259308
1772456003950753800,10.14775390625,0.44837507605552673,0.970054030418396,-0.1368338167667389
1772456003960747000,10.1577470703125,0.45204028487205505,0.5791002511978149,0.02076941914856434
1772456003980788500,10.17778857421875,0.4190535545349121,-0.2528982162475586,0.04398229718208313
1772456003990809300,10.187809326171875,0.4056145250797272,-0.5742133259773254,-0.1771509200334549
1772456004000800300,10.19780029296875,0.3933972120285034,-0.8894197940826416,-0.40683624148368835
1772456004010844000,10.207843994140624,0.37140607833862305,-1.1887437105178833,-0.5900958180427551
1772456004020859600,10.217859619140626,0.31154128909111023,-1.4355332851409912,-0.7574729323387146
1772456004031193000,10.228193115234374,0.2272418737411499,-1.6212363243103027,-0.8649851679801941
1772456004040873500,10.23787353515625,0.13561208546161652,-1.7592918872833252,-0.8344419002532959
1772456004050919400,10.24791943359375,0.03420845419168472,-1.8680258989334106,-0.6340781450271606
1772456004060892400,10.257892333984374,-0.03787364438176155,-1.9339994192123413,-0.42271876335144043
1772456004070916600,10.26791650390625,-0.06963863968849182,-1.9168951511383057,-0.1514945775270462
1772456004100924700,10.297924560546875,-0.17348572611808777,-1.508837103843689,0.607200026512146
1772456004110941700,10.307941650390624,-0.1661553531885147,-1.3048081398010254,0.5106833577156067
1772456004120934700,10.3179345703125,-0.1466076523065567,-1.0323622226715088,0.3029891550540924
1772456004131309800,10.328309814453124,-0.10873401165008545,-0.6670648455619812,0.02932153269648552
1772456004140983800,10.33798388671875,-0.06352998316287994,-0.22846360504627228,-0.21135938167572021
1772456004150984400,10.347984375,-0.02321287989616394,0.21013765037059784,-0.3127630054950714
1772456004160974300,10.357974365234375,-0.0012217304902151227,0.6059783101081848,-0.2687807083129883
1772456004171031800,10.36803173828125,-0.009773843921720982,0.9541715383529663,-0.20402899384498596
1772456004201043000,10.39804296875,-0.019547687843441963,1.7336355447769165,0.2528982162475586
1772456004211099100,10.40809912109375,0.004886921960860491,1.82404363155365,0.30054569244384766
1772456004221082000,10.41808203125,0.02932153269648552,1.8570303916931152,0.3335324227809906
1772456004231410200,10.42841015625,0.03787364438176155,1.8264870643615723,0.25045475363731384
1772456004241088500,10.438088623046875,0.039095375686883926,1.7507398128509521,0.04398229718208313
1772456004251137000,10.448136962890626,0.059864792972803116,1.6310101747512817,-0.14538592100143433
1772456004261125000,10.458125,0.10384709388017654,1.4868459701538086,-0.17104226350784302
1772456004271144000,10.46814404296875,0.1563815027475357,1.3158037662506104,-0.025656340643763542
1772456004281157600,10.47815771484375,0.17837265133857727,1.0616837739944458,0.1111774742603302
1772456004311195000,10.50819482421875,0.1417207419872284,0.1258382350206375,0.27488934993743896
1772456004321174000,10.518174072265625,0.1258382350206375,-0.20402899384498596,0.15393804013729095
1772456004332141000,10.52914111328125,0.09773843735456467,-0.5351179838180542,-0.09529497474431992
1772456004341223700,10.5382236328125,0.0708603709936142,-0.8833111524581909,-0.3628539443016052
1772456004352877300,10.549877197265625,0.0354301854968071,-1.2376129627227783,-0.607200026512146
1772456004361227500,10.5582275390625,-0.02687807008624077,-1.6786576509475708,-0.846659243106842
1772456004371255800,10.568255859375,-0.09651670604944229,-1.8765780925750732,-0.8600982427597046
1772456004381211400,10.57821142578125,-0.1722639948129654,-2.012190103530884,-0.7648032903671265
1772456004391231000,10.58823095703125,-0.23579397797584534,-2.1111502647399902,-0.5277875661849976
1772456004421233200,10.618233154296876,-0.2871066629886627,-2.015855312347412,0.4642575979232788
1772456004431576300,10.628576416015624,-0.3176499307155609,-1.822821855545044,0.6157521605491638
1772456004441249500,10.63824951171875,-0.38117989897727966,-1.595579981803894,0.6572909951210022
1772456004451282700,10.64828271484375,-0.4153883755207062,-1.3585642576217651,0.6108652353286743
1772456004461239800,10.65823974609375,-0.4141666293144226,-1.0690141916275024,0.43249258399009705
1772456004471265500,10.668265625,-0.4092797040939331,-0.6768386960029602,0.19792033731937408
1772456004481232400,10.678232421875,-0.4092797040939331,-0.21502456068992615,0.021991148591041565
1772456004491897300,10.6888974609375,-0.40194934606552124,0.23335053026676178,-0.03176499158143997
1772456004501586200,10.698586181640625,-0.36529740691185,0.7757988572120667,0.07330382615327835
1772456004521286400,10.718286376953126,-0.41661009192466736,1.3915510177612305,0.30543261766433716
1772456004531645200,10.728645263671876,-0.42149701714515686,1.6139060258865356,0.3995058834552765
1772456004541286700,10.73828662109375,-0.37140607833862305,1.7519614696502686,0.3836233615875244
1772456004551331800,10.748331787109375,-0.294437050819397,1.8362609148025513,0.24190263450145721
1772456004561303800,10.7583037109375,-0.22357667982578278,1.8863518238067627,0.036651913076639175
1772456004571362600,10.768362548828126,-0.1722639948129654,1.8655824661254883,-0.22846360504627228
1772456004581316900,10.77831689453125,-0.11728613078594208,1.7654005289077759,-0.46547931432724
1772456004591341800,10.788341796875,-0.051312681287527084,1.6175711154937744,-0.588874101638794
1772456004601309000,10.798308837890625,0.024434609338641167,1.4404202699661255,-0.5497786998748779
1772456004611348500,10.808348388671876,0.09529497474431992,1.2119566202163696,-0.3237585723400116
1772456004631630600,10.828630615234376,0.059864792972803116,0.2968805134296417,0.12095131725072861
1772456004641291300,10.838291259765626,0.021991148591041565,-0.08307767659425735,0.20525072515010834
1772456004651961300,10.84896142578125,-0.030543262138962746,-0.44715335965156555,0.22479841113090515
1772456004661307400,10.858307373046875,-0.09651670604944229,-0.7843509912490845,0.12461651116609573
1772456004672969500,10.869969482421874,-0.15760323405265808,-1.1129964590072632,-0.039095375686883926
1772456004681305000,10.87830517578125,-0.23457226157188416,-1.4428637027740479,-0.21868975460529327
1772456004691352000,10.88835205078125,-0.3323107063770294,-1.7385225296020508,-0.37140607833862305
1772456004701323500,10.898323486328126,-0.43249258399009705,-1.9620991945266724,-0.4789183437824249
1772456004711337500,10.90833740234375,-0.5253441333770752,-2.1123719215393066,-0.3689626157283783
1772456004741280500,10.938280517578125,-0.5656611919403076,-2.116037130355835,0.6548475623130798
1772456004751308800,10.948308837890625,-0.5253441333770752,-1.9511035680770874,0.970054030418396
1772456004761271600,10.958271484375,-0.5229006409645081,-1.7238616943359375,1.0751228332519531
1772456004771314200,10.968314208984374,-0.48869219422340393,-1.3329079151153564,0.8845328688621521
1772456004781260500,10.978260498046875,-0.43615779280662537,-1.0042624473571777,0.46181413531303406
1772456004791295500,10.98829541015625,-0.39095374941825867,-0.5546656250953674,0.0354301854968071
1772456004801258800,10.9982587890625,-0.32131510972976685,-0.0403171069920063,-0.2590068578720093
1772456004811912700,11.00891259765625,-0.20891591906547546,0.475253164768219,-0.38606682419776917
1772456004851348500,11.048348388671876,-0.02076941914856434,2.1783454418182373,-0.4092797040939331
1772456004861297000,11.058296875,-0.00855211354792118,2.484999895095825,-0.3836233615875244
1772456004871318800,11.06831884765625,0.006108652334660292,2.568077564239502,-0.27977627515792847
1772456004881286400,11.078286376953125,-0.021991148591041565,2.400700330734253,-0.22602014243602753
1772456004891326700,11.08832666015625,-0.08185594528913498,2.1710150241851807,-0.34086281061172485
1772456004901266200,11.09826611328125,-0.14294247329235077,1.948660135269165,-0.6902777552604675
1772456004911284200,11.1082841796875,-0.13072516024112701,1.7715091705322266,-0.9053022861480713
1772456004921247700,11.118247802734375,-0.06841690838336945,1.4892895221710205,-0.7073819637298584
1772456004951288600,11.14828857421875,-0.11239920556545258,0.29077184200286865,0.4031710624694824
1772456004961254100,11.158254150390626,-0.12339477986097336,-0.11239920556545258,0.4996877610683441
1772456004971907600,11.168907470703125,-0.14538592100143433,-0.485027015209198,0.394618958234787
1772456004981243600,11.17824365234375,-0.14416420459747314,-0.836885392665863,0.15760323405265808
1772456004992868400,11.189868408203125,-0.12339477986097336,-1.1630873680114746,-0.1062905490398407
1772456005001254400,11.19825439453125,-0.10995574295520782,-1.4599679708480835,-0.3677408695220947
1772456005011287600,11.20828759765625,-0.10384709388017654,-1.6920967102050781,-0.4703662395477295
1772456005021234700,11.218234619140626,-0.09651670604944229,-1.852143406867981,-0.4508185386657715
1772456005041236200,11.238236328125,-0.021991148591041565,-1.909564733505249,-0.0354301854968071
1772456005051271400,11.248271484375,0.021991148591041565,-1.8106045722961426,0.2321287989616394
1772456005061225700,11.258225830078125,0.03298672288656235,-1.7018705606460571,0.4178318381309509
1772456005071253000,11.2682529296875,-0.00733038317412138,-1.5821410417556763,0.5082398653030396
1772456005081307100,11.27830712890625,-0.0708603709936142,-1.4208725690841675,0.42638394236564636
1772456005091281700,11.28828173828125,-0.09773843735456467,-1.2021827697753906,0.2724458873271942
1772456005101233700,11.298233642578126,-0.09407325088977814,-0.9138544201850891,0.08918632566928864
1772456005111262000,11.308261962890626,-0.0757472887635231,-0.5412266254425049,-0.10018189996480942
1772456005121242400,11.318242431640625,-0.059864792972803116,-0.14416420459747314,-0.1869247704744339
1772456005132222500,11.329222412109376,-0.042760565876960754,0.24190263450145721,-0.18325957655906677
1772456005153797000,11.350797119140625,-0.045204028487205505,0.9370672702789307,-0.05864306539297104
1772456005161299700,11.3582998046875,-0.10506882518529892,1.2877039909362793,0.03298672288656235
1772456005171346200,11.36834619140625,-0.15515977144241333,1.6102408170700073,0.10995574295520782
1772456005181296600,11.378296630859374,-0.16737708449363708,1.8545868396759033,0.11972958594560623
1772456005191327200,11.3883271484375,-0.16371189057826996,1.8692476749420166,0.06841690838336945
1772456005201307100,11.39830712890625,-0.1722639948129654,1.852143406867981,-0.021991148591041565
1772456005211362800,11.40836279296875,-0.18936823308467865,1.8399261236190796,-0.10873401165008545
1772456005221346600,11.4183466796875,-0.21135938167572021,1.803274154663086,-0.23945917189121246
1772456005231699000,11.428698974609375,-0.20402899384498596,1.7201964855194092,-0.3885102868080139
1772456005241371100,11.43837109375,-0.14416420459747314,1.5992451906204224,-0.42638394236564636
1772456005261394400,11.45839453125,0.0708603709936142,1.2803735733032227,-0.23457226157188416
1772456005271427000,11.468427001953126,0.19914206862449646,1.0800096988677979,-0.09773843735456467
1772456005281419000,11.4784189453125,0.27122417092323303,0.779464066028595,0.03176499158143997
1772456005292075300,11.4890751953125,0.28099802136421204,0.4337143301963806,0.012217304669320583
1772456005301428500,11.498428466796875,0.2626720666885376,0.09896016865968704,-0.1869247704744339
1772456005313098800,11.5100986328125,0.19547687470912933,-0.40683624148368835,-0.5803219676017761
1772456005321481500,11.5184814453125,0.12461651116609573,-0.7464773058891296,-0.8210029006004333
1772456005331820300,11.5288203125,0.03787364438176155,-1.0787880420684814,-0.9236282706260681
1772456005341492500,11.538492431640625,-0.05497787147760391,-1.3927727937698364,-0.8478809595108032
1772456005361518300,11.558518310546875,-0.22113321721553802,-1.7715091705322266,-0.3445279896259308
1772456005371597600,11.56859765625,-0.2577851414680481,-1.8411478996276855,0.03298672288656235
1772456005381565000,11.57856494140625,-0.29077184200286865,-1.871691107749939,0.4190535545349121
1772456005391594800,11.5885947265625,-0.27000242471694946,-1.8081611394882202,1.0115928649902344
1772456005401584000,11.598584228515625,-0.2541199326515198,-1.6481144428253174,1.3365731239318848
1772456005411628800,11.60862890625,-0.31154128909111023,-1.4892895221710205,1.3927727937698364
1772456005421596700,11.6185966796875,-0.3494149148464203,-1.3365731239318848,1.2608258724212646
1772456005431937800,11.628937744140625,-0.3384193480014801,-1.0067058801651,0.5729916095733643
1772456005441613800,11.63861376953125,-0.32498031854629517,-0.6450737118721008,0.05864306539297104
1772456005452279300,11.649279296875,-0.26511552929878235,-0.17470745742321014,-0.29565876722335815
1772456005474171100,11.671171142578125,-0.14538592100143433,0.6707300543785095,-0.43615779280662537
1772456005481691100,11.678691162109375,-0.15515977144241333,0.9749409556388855,-0.2785545587539673
1772456005491735800,11.68873583984375,-0.18448130786418915,1.2596040964126587,-0.02321287989616394
1772456005501691100,11.698691162109375,-0.2223549485206604,1.5344934463500977,0.22479841113090515
1772456005511722800,11.70872265625,-0.24923302233219147,1.7654005289077759,0.35552358627319336
1772456005521704700,11.71870458984375,-0.24068090319633484,1.9352210760116577,0.36529740691185
1772456005532055800,11.729055908203126,-0.2015855312347412,2.012190103530884,0.2675589919090271
1772456005541705200,11.738705322265625,-0.1563815027475357,1.9987510442733765,0.0708603709936142
1772456005551733000,11.74873291015625,-0.10262536257505417,1.8961256742477417,-0.1258382350206375
1772456005561709800,11.758709716796876,-0.0403171069920063,1.7592918872833252,-0.3090978264808655
1772456005581725400,11.778725341796875,0.3188716471195221,1.330464482307434,-0.1869247704744339
1772456005591762200,11.78876220703125,0.4043927788734436,1.0250319242477417,-0.09285151958465576
1772456005601742600,11.79874267578125,0.47280970215797424,0.6536257863044739,0.03420845419168472
1772456005612428300,11.80942822265625,0.5106833577156067,0.26511552929878235,0.09162978827953339
1772456005621797600,11.818797607421875,0.5082398653030396,-0.13072516024112701,-0.0012217304902151227
1772456005633720300,11.83072021484375,0.5021312236785889,-0.504574716091156,-0.2064724564552307
1772456005641831700,11.838831787109376,0.48747047781944275,-0.8845328688621521,-0.46303585171699524
1772456005651879400,11.84887939453125,0.4544837474822998,-1.284038782119751,-0.6633996367454529
1772456005661845500,11.858845458984375,0.394618958234787,-1.6468926668167114,-0.7929030656814575
1772456005671873300,11.868873291015625,0.3335324227809906,-1.9254472255706787,-0.7611380815505981
1772456005691898400,11.8888984375,0.1466076523065567,-2.22477126121521,-0.3139847218990326
1772456005701857300,11.898857177734374,0.08185594528913498,-2.283414363861084,-0.0354301854968071
1772456005711893000,11.90889306640625,0.1160643994808197,-2.211332082748413,0.7709119319915771
1772456005721870300,11.918870361328125,0.1258382350206375,-2.059837579727173,1.1032226085662842
1772456005732227300,11.929227294921875,0.05742133408784866,-1.890017032623291,1.1691961288452148
1772456005741884400,11.938884521484376,-0.00733038317412138,-1.7238616943359375,0.9932668805122375
1772456005751924200,11.94892431640625,-0.018325956538319588,-1.4966198205947876,0.6096435189247131
1772456005761917400,11.95891748046875,-0.010995574295520782,-1.1301007270812988,0.13927727937698364
1772456005772583200,11.969583251953125,-0.02321287989616394,-0.6426302194595337,-0.2773328125476837
1772456005794462200,11.991462158203126,0.0354301854968071,0.31520646810531616,-0.49357911944389343
1772456005801961000,11.9989609375,0.08796459436416626,0.6841690540313721,-0.4239404797554016
1772456005812055800,12.009055908203125,0.09162978827953339,0.9957103729248047,-0.25045475363731384
1772456005821982200,12.018982177734374,0.024434609338641167,1.274264931678772,-0.06719517707824707
1772456005832329000,12.029328857421875,-0.03420845419168472,1.6322319507598877,0.1771509200334549
1772456005841998800,12.038998779296875,-0.03420845419168472,1.804495930671692,0.2785545587539673
1772456005852068000,12.049068115234375,-0.045204028487205505,1.86191725730896,0.2687807083129883
1772456005862020400,12.059020263671876,-0.009773843921720982,1.822821855545044,0.18325957655906677
1772456005872029400,12.069029541015626,0.059864792972803116,1.7605136632919312,0.01710422709584236
1772456005882010600,12.0790107421875,0.09773843735456467,1.7250834703445435,-0.19792033731937408
1772456005902028300,12.0990283203125,0.21380282938480377,1.5332717895507812,-0.4288274049758911
1772456005912038100,12.1090380859375,0.3396410644054413,1.2889256477355957,-0.32009339332580566
1772456005922025700,12.119025634765626,0.4080579876899719,0.9615018963813782,-0.16737708449363708
1772456005932975400,12.129975341796875,0.4056145250797272,0.6096435189247131,0.009773843921720982
1772456005942023400,12.1390234375,0.4031710624694824,0.28099802136421204,0.12217304855585098
1772456005953667600,12.15066748046875,0.41172316670417786,-0.05742133408784866,0.09651670604944229
1772456005962015500,12.159015380859374,0.3995058834552765,-0.41172316670417786,-0.03298672288656235
1772456005972034600,12.16903466796875,0.33108896017074585,-0.9529497623443604,-0.27977627515792847
1772456005981993500,12.178993408203125,0.29077184200286865,-1.3072515726089478,-0.45204028487205505
1772456006011997000,12.208996826171875,0.13561208546161652,-2.0622811317443848,-0.485027015209198
1772456006021985000,12.218985107421876,0.08918632566928864,-2.1563544273376465,-0.30543261766433716
1772456006032301300,12.22930126953125,0.059864792972803116,-2.1795670986175537,-0.07452555745840073
1772456006041971200,12.23897119140625,0.05009094998240471,-2.140471935272217,0.41172316670417786
1772456006052002800,12.2490029296875,0.018325956538319588,-2.040289878845215,0.7672467231750488
1772456006061966300,12.25896630859375,-0.04886921867728233,-1.9034560918807983,0.9004153609275818
1772456006071974700,12.268974609375,-0.1062905490398407,-1.7409659624099731,0.96883225440979
1772456006081946400,12.2789462890625,-0.12461651116609573,-1.5210545063018799,0.8417723178863525
1772456006092590600,12.289590576171875,-0.1319468915462494,-1.214400053024292,0.5229006409645081
1772456006114492400,12.311492431640625,-0.1661553531885147,-0.07452555745840073,-0.05619960278272629
1772456006121998600,12.31899853515625,-0.13439035415649414,0.37751471996307373,-0.045204028487205505
1772456006132340000,12.329340087890625,-0.13561208546161652,0.7819074988365173,0.036651913076639175
1772456006142036500,12.339036376953125,-0.17837265133857727,1.1423180103302002,0.13805554807186127
1772456006152045800,12.3490458984375,-0.26145032048225403,1.4563027620315552,0.24923302233219147
1772456006162044200,12.359044189453124,-0.3286454975605011,1.7275269031524658,0.33719760179519653
1772456006172066300,12.36906640625,-0.3335324227809906,1.9425514936447144,0.3628539443016052
1772456006182038500,12.37903857421875,-0.3017674386501312,2.0757200717926025,0.36163222789764404
1772456006192055300,12.38905517578125,-0.29077184200286865,2.109928607940674,0.31154128909111023
1772456006202045000,12.399044921875,-0.30543261766433716,2.0500638484954834,0.19425514340400696
1772456006222027000,12.419027099609375,-0.24556782841682434,1.8570303916931152,-0.051312681287527084
1772456006232343600,12.429343505859375,-0.17104226350784302,1.7568484544754028,-0.16982053220272064
1772456006242025700,12.439025634765626,-0.07208210229873657,1.5845844745635986,-0.2272418737411499
1772456006252657400,12.449657470703125,0.11850785464048386,1.2217304706573486,-0.06475171446800232
1772456006262022400,12.4590224609375,0.20402899384498596,0.9187413454055786,0.045204028487205505
1772456006273629000,12.47062890625,0.2370157092809677,0.5925393104553223,0.18570303916931152
1772456006282030600,12.479030517578124,0.2565633952617645,0.24923302233219147,0.26511552929878235
1772456006292071400,12.489071533203125,0.27122417092323303,-0.10262536257505417,0.22357667982578278
1772456006302026200,12.499026123046875,0.26022860407829285,-0.4386012554168701,0.0708603709936142
1772456006312028700,12.509028564453125,0.2370157092809677,-0.7745771408081055,-0.10751228034496307
1772456006332344800,12.5293447265625,0.18936823308467865,-1.4685200452804565,-0.3640756905078888
1772456006342025700,12.539025634765625,0.14294247329235077,-1.7641788721084595,-0.39217549562454224
1772456006352028000,12.54902783203125,0.08185594528913498,-1.9743164777755737,-0.294437050819397
1772456006362011600,12.55901171875,0.01466076634824276,-2.0916025638580322,-0.13316862285137177
1772456006372029200,12.569029296875,-0.03420845419168472,-2.107485055923462,0.19914206862449646
1772456006381999000,12.5789990234375,-0.07819075137376785,-1.9828685522079468,0.8393288254737854
1772456006391997400,12.58899755859375,-0.13316862285137177,-1.8472565412521362,1.0409144163131714
1772456006401999000,12.5989990234375,-0.1966986060142517,-1.6872098445892334,1.1105530261993408
1772456006412663300,12.609663330078124,-0.23335053026676178,-1.4917329549789429,0.9236282706260681
1772456006442059800,12.639059814453125,-0.2687807083129883,-0.40683624148368835,-0.03176499158143997
1772456006452082200,12.649082275390626,-0.26511552929878235,0.05497787147760391,-0.21135938167572021
1772456006462039600,12.65903955078125,-0.24434609711170197,0.4813618063926697,-0.19914206862449646
1772456006472040400,12.66904052734375,-0.25045475363731384,0.8698720932006836,-0.08552113175392151
1772456006482043000,12.67904296875,-0.2871066629886627,1.2400563955307007,0.10018189996480942
1772456006492060000,12.689059814453126,-0.32498031854629517,1.568701982498169,0.31642818450927734
1772456006502025000,12.69902490234375,-0.34697145223617554,1.7983872890472412,0.4642575979232788
1772456006512024300,12.7090244140625,-0.33719760179519653,1.93766450881958,0.4715879559516907
1772456006522012200,12.71901220703125,-0.2773328125476837,2.031737804412842,0.38606682419776917
1772456006562065200,12.759065185546875,-0.13072516024112701,1.8277088403701782,-0.23457226157188416
1772456006572690700,12.769690673828125,-0.051312681287527084,1.6664403676986694,-0.3323107063770294
1772456006582059000,12.77905908203125,0.03176499158143997,1.4587461948394775,-0.28955012559890747
1772456006593702400,12.790702392578124,0.12461651116609573,1.2376129627227783,0.0012217304902151227
1772456006602062300,12.799062255859376,0.1869247704744339,1.0286970138549805,0.3579670190811157
1772456006612080600,12.80908056640625,0.1918116807937622,0.7611380815505981,0.6194173693656921
1772456006622037500,12.81903759765625,0.18814650177955627,0.45204028487205505,0.8038986921310425
1772456006652052200,12.84905224609375,0.21380282938480377,-0.5412266254425049,0.2785545587539673
1772456006662019800,12.859019775390625,0.26145032048225403,-0.8710938692092896,-0.018325956538319588
1772456006672036000,12.8690361328125,0.32009339332580566,-1.186300277709961,-0.3396410644054413
1772456006682042600,12.879042724609375,0.34086281061172485,-1.4758504629135132,-0.6817256212234497
1772456006692063200,12.889063232421876,0.33597588539123535,-1.7275269031524658,-0.8979719281196594
1772456006702028800,12.89902880859375,0.3066543638706207,-1.9327776432037354,-0.979827880859375
1772456006712033500,12.909033447265625,0.27000242471694946,-2.0867156982421875,-0.9456194043159485
1772456006722043000,12.91904296875,0.21380282938480377,-2.177123785018921,-0.8319984674453735
1772456006732989700,12.92998974609375,0.16249015927314758,-2.194227933883667,-0.45326200127601624
1772456006754546700,12.951546630859376,0.1014036312699318,-2.037846565246582,0.5534439086914062
1772456006762070500,12.959070556640626,0.05497787147760391,-1.8936822414398193,0.807563841342926
1772456006772112100,12.969112060546875,0.0024434609804302454,-1.7177530527114868,0.8197811841964722
1772456006782075600,12.97907568359375,-0.03176499158143997,-1.4795156717300415,0.616973876953125
1772456006792084200,12.989084228515624,-0.04398229718208313,-0.9224064946174622,0.12828169763088226
1772456006802064600,12.999064697265625,-0.0403171069920063,-0.4434881806373596,-0.2125810980796814
1772456006812088300,13.00908837890625,-0.010995574295520782,0.04886921867728233,-0.41661009192466736
1772456006822080500,13.01908056640625,0.018325956538319588,0.5009095072746277,-0.48380526900291443
1772456006832398800,13.02939892578125,0.006108652334660292,0.9040805697441101,-0.49357911944389343
1772456006842064600,13.039064697265625,-0.039095375686883926,1.301142930984497,-0.3481931984424591
1772456006872058000,13.06905810546875,-0.1612684279680252,2.124589204788208,0.12828169763088226
1772456006882044400,13.07904443359375,-0.17837265133857727,2.152689218521118,0.1014036312699318
1772456006892695300,13.0896953125,-0.1820378452539444,2.14902400970459,0.00733038317412138
1772456006902044200,13.099044189453124,-0.1966986060142517,2.138028383255005,-0.1563815027475357
1772456006913650200,13.110650146484375,-0.2076941877603531,2.1258111000061035,-0.3323107063770294
1772456006922054700,13.1190546875,-0.13927727937698364,2.026850938796997,-0.4495968222618103
1772456006932380400,13.12938037109375,0.03298672288656235,1.7544050216674805,-0.4960225820541382
1772456006942029600,13.139029541015624,0.10018189996480942,1.5430456399917603,-0.39217549562454224
1772456006952030000,13.149030029296876,0.1514945775270462,1.2962560653686523,-0.22846360504627228
1772456006972065000,13.16906494140625,0.27122417092323303,0.7415903806686401,-0.13927727937698364
1772456006982028800,13.17902880859375,0.3225368559360504,0.4153883755207062,-0.1771509200334549
1772456006992032300,13.1890322265625,0.36529740691185,0.05009094998240471,-0.30054569244384766
1772456007002005800,13.199005859375,0.3543018400669098,-0.3225368559360504,-0.5057964324951172
1772456007012031700,13.20903173828125,0.3090978264808655,-0.6914994716644287,-0.6988298296928406
1772456007021983700,13.218983642578126,0.27000242471694946,-1.0421360731124878,-0.8258898258209229
1772456007032294000,13.2292939453125,0.21868975460529327,-1.3475687503814697,-0.9382890462875366
1772456007041954600,13.23895458984375,0.15271630883216858,-1.5906931161880493,-0.9908234477043152
1772456007052583400,13.24958349609375,0.07330382615327835,-1.7849482297897339,-0.9224064946174622
1772456007081999000,13.2789990234375,-0.04764748737215996,-1.8460347652435303,0.07330382615327835
1772456007092017700,13.289017578125,-0.051312681287527084,-1.7434093952178955,0.4031710624694824
1772456007101986800,13.29898681640625,-0.09896016865968704,-1.6395623683929443,0.5400048494338989
1772456007112014600,13.3090146484375,-0.1368338167667389,-1.5112806558609009,0.6426302194595337
1772456007121982700,13.318982666015625,-0.14049901068210602,-1.29381263256073,0.5571091175079346
1772456007132327700,13.32932763671875,-0.13316862285137177,-0.9566149711608887,0.294437050819397
1772456007141986600,13.338986572265625,-0.1111774742603302,-0.5167919993400574,-0.0354301854968071
1772456007151981000,13.34898095703125,-0.08185594528913498,-0.039095375686883926,-0.2932153046131134
1772456007161998600,13.35899853515625,-0.030543262138962746,0.4202753007411957,-0.43737950921058655
1772456007191972000,13.38897216796875,-0.009773843921720982,1.5723671913146973,-0.46792277693748474
1772456007201954800,13.398954833984375,-0.01466076634824276,1.9901989698410034,-0.46181413531303406
1772456007212595000,13.409594970703125,-0.004886921960860491,2.1587977409362793,-0.48380526900291443
1772456007221961700,13.418961669921876,-0.006108652334660292,2.2602014541625977,-0.49846604466438293
1772456007233900300,13.430900390625,-0.00855211354792118,2.3102922439575195,-0.4948008358478546
1772456007241966800,13.438966796875,-0.013439035043120384,2.337170362472534,-0.5827654600143433
1772456007252005600,13.449005615234375,-0.00366519158706069,2.3408355712890625,-0.7428121566772461
1772456007261959000,13.458958984375,0.03420845419168472,2.291966438293457,-0.9101892113685608
1772456007271959600,13.46895947265625,0.09162978827953339,2.1795670986175537,-1.076344609260559
1772456007291964700,13.488964599609375,0.2223549485206604,1.7812830209732056,-1.026253581047058
1772456007301939700,13.498939697265625,0.22968533635139465,1.4721852540969849,-0.9957103729248047
1772456007311939600,13.508939697265625,0.21380282938480377,1.0995573997497559,-0.9993755221366882
1772456007321911300,13.518911376953126,0.21135938167572021,0.7244861721992493,-1.0445796251296997
1772456007332241000,13.529240966796875,0.2272418737411499,0.22479841113090515,-1.33168625831604
1772456007341924600,13.538924560546874,0.25045475363731384,-0.09896016865968704,-1.7702875137329102
1772456007351939300,13.548939208984375,0.27000242471694946,-0.43737950921058655,-2.3860397338867188
1772456007361925400,13.55892529296875,0.2675589919090271,-0.7770205736160278,-3.0494391918182373
1772456007372539000,13.569538818359375,0.251676470041275,-1.0836749076843262,-3.690847873687744
1772456007394408400,13.591408447265625,0.2382374405860901,-1.4257594347000122,-4.675562381744385
1772456007401898000,13.59889794921875,0.24556782841682434,-1.4697418212890625,-4.974886417388916
1772456007411918600,13.608918701171875,0.28588494658470154,-1.4501941204071045,-5.033529758453369
1772456007421906700,13.61890673828125,0.3689626157283783,-1.3536773920059204,-5.009095191955566
1772456007432230700,13.629230712890624,0.45204028487205505,-1.2608258724212646,-5.021312236785889
1772456007441903600,13.638903564453125,0.5265658497810364,-1.236391305923462,-4.983438491821289
1772456007451911200,13.6489111328125,0.5937610268592834,-1.2669345140457153,-4.795292377471924
1772456007461870300,13.658870361328125,0.6609562039375305,-1.3536773920059204,-4.425107955932617
1772456007472061000,13.66906103515625,0.7464773058891296,-1.5320500135421753,-3.782477617263794
1772456007481864700,13.67886474609375,0.7684684991836548,-1.6224581003189087,-3.3450980186462402
1772456007511918600,13.708918701171875,0.636521577835083,-1.6322319507598877,-1.833817481994629
1772456007521844200,13.71884423828125,0.5534439086914062,-1.5369369983673096,-1.398881435394287
1772456007532771800,13.729771728515624,0.4801400899887085,-1.36955988407135,-1.0409144163131714
1772456007541866500,13.738866455078124,0.40683624148368835,-1.1301007270812988,-0.7428121566772461
1772456007553500700,13.750500732421875,0.32498031854629517,-0.8857545852661133,-0.5216789245605469
1772456007561878000,13.7588779296875,0.2370157092809677,-0.6414085030555725,-0.34697145223617554
1772456007571884000,13.768884033203125,0.16737708449363708,-0.3677408695220947,-0.2028072625398636
1772456007581863700,13.77886376953125,0.12095131725072861,-0.06475171446800232,-0.09651670604944229
1772456007611854600,13.8088544921875,-0.1869247704744339,0.8820894360542297,0.3323107063770294
1772456007621854200,13.818854248046875,-0.27488934993743896,1.1447614431381226,0.3274237811565399
1772456007632198400,13.829198486328124,-0.3640756905078888,1.3854423761367798,0.2736676335334778
1772456007641857300,13.838857177734376,-0.46303585171699524,1.5650367736816406,0.1869247704744339
1772456007651857400,13.848857421875,-0.5387831330299377,1.7043139934539795,0.1160643994808197
1772456007661856500,13.8588564453125,-0.5644394755363464,1.8020524978637695,0.019547687843441963
1772456007671889400,13.868889404296874,-0.5693264007568359,1.794722080230713,-0.09773843735456467
1772456007681855000,13.87885498046875,-0.5607742667198181,1.6969836950302124,-0.2480112910270691
1772456007692476000,13.889475830078124,-0.5778785347938538,1.540602207183838,-0.37751471996307373
1772456007721878800,13.918878662109375,-0.21624629199504852,0.9810495972633362,-0.9761626720428467
1772456007732202500,13.929202392578125,-0.1319468915462494,0.608421802520752,-1.2107349634170532
1772456007741879300,13.93887939453125,-0.06230825558304787,0.16004669666290283,-1.3817771673202515
1772456007751927300,13.94892724609375,0,-0.5754350423812866,-1.246165156364441
1772456007761893400,13.958893310546875,0.03787364438176155,-1.0140362977981567,-0.9053022861480713
1772456007771902500,13.96890234375,0.013439035043120384,-1.3829989433288574,-0.4911356568336487
1772456007781908000,13.978907958984376,-0.013439035043120384,-1.6322319507598877,-0.05742133408784866
1772456007791957800,13.988957763671875,-0.01710422709584236,-1.8008307218551636,0.38240164518356323
1772456007801924600,13.998924560546875,-0.010995574295520782,-1.910786509513855,0.8185594081878662
1772456007811938300,14.008938232421874,-0.01710422709584236,-1.968207836151123,1.1374311447143555
1772456007832286200,14.0292861328125,-0.05742133408784866,-2.0415115356445312,1.3903292417526245
1772456007841951500,14.038951416015625,-0.06475171446800232,-2.009746551513672,1.310916781425476
1772456007852576800,14.04957666015625,-0.04153883829712868,-1.8949040174484253,1.1301007270812988
1772456007861973000,14.058972900390625,-0.019547687843441963,-1.7140878438949585,0.8808676600456238
1772456007873662000,14.070661865234374,0,-1.4721852540969849,0.6352998614311218
1772456007882011100,14.07901123046875,0.042760565876960754,-1.0506882667541504,0.394618958234787
1772456007892031700,14.08903173828125,0.03787364438176155,-0.7391469478607178,0.2932153046131134
1772456007902027300,14.09902734375,-0.010995574295520782,-0.42149701714515686,0.23335053026676178
1772456007912081400,14.109081298828125,-0.05009094998240471,-0.0757472887635231,0.2480112910270691
1772456007922053000,14.11905322265625,-0.07696902006864548,0.29077184200286865,0.2993239760398865
1772456007932399000,14.129399169921875,-0.12950342893600464,0.6487388610839844,0.32131510972976685
1772456007942081500,14.13908154296875,-0.1966986060142517,0.9822713136672974,0.35185837745666504
1772456007952144100,14.14914404296875,-0.2638937830924988,1.29381263256073,0.42149701714515686
1772456007962118400,14.159118408203126,-0.32009339332580566,1.5748106241226196,0.5082398653030396
1772456007972135700,14.1691357421875,-0.3836233615875244,1.8106045722961426,0.5864306092262268
1772456007982133200,14.17913330078125,-0.4495968222618103,1.9840903282165527,0.6902777552604675
1772456007992173300,14.18917333984375,-0.5167919993400574,2.0916025638580322,0.8454375267028809
1772456008002138600,14.199138671875,-0.5852088928222656,2.1233675479888916,1.037249207496643
1772456008012767500,14.209767578125,-0.646295428276062,2.065946340560913,1.370781660079956
1772456008035028000,14.232028076171876,-0.5815436840057373,1.7556266784667969,1.6701055765151978
1772456008042243000,14.2392431640625,-0.4813618063926697,1.4721852540969849,1.7727309465408325
1772456008052263400,14.249263427734375,-0.3579670190811157,1.1105530261993408,1.7360789775848389
1772456008062255400,14.25925537109375,-0.21624629199504852,0.6475171446800232,1.5112806558609009
1772456008072316700,14.269316650390625,-0.04764748737215996,0.1417207419872284,1.1594222784042358
1772456008082283800,14.27928369140625,0.14782938361167908,-0.35552358627319336,0.797789990901947
1772456008092295000,14.289294921875,0.35063666105270386,-0.8258898258209229,0.5338962078094482
1772456008102294000,14.2992939453125,0.5277875661849976,-1.2192870378494263,0.38606682419776917
1772456008112331500,14.30933154296875,0.675616979598999,-1.5137240886688232,0.3274237811565399
1772456008122303500,14.319303466796875,0.7965682744979858,-1.722640037536621,0.4300491213798523
1772456008142325000,14.339324951171875,0.9004153609275818,-1.9523253440856934,1.1850786209106445
1772456008152372700,14.349372802734376,0.8124507665634155,-1.9987510442733765,1.8496999740600586
1772456008162340600,14.359340576171874,0.7623597979545593,-1.9083430767059326,2.2565362453460693
1772456008172973600,14.3699736328125,0.7745771408081055,-1.8472565412521362,2.8576276302337646
1772456008182356200,14.379356201171875,0.7623597979545593,-1.7825047969818115,3.352428436279297
1772456008193990100,14.390990234375,0.6817256212234497,-1.6725490093231201,3.4232888221740723
1772456008202368000,14.399367919921875,0.6059783101081848,-1.5601497888565063,3.3316590785980225
1772456008212380400,14.40938037109375,0.48869219422340393,-1.3976596593856812,3.1557297706604004
1772456008222369000,14.419369140625,0.2968805134296417,-1.1166616678237915,2.718350410461426
1772456008232715800,14.4297158203125,0.13316862285137177,-0.759916365146637,2.250427484512329
1772456008252394800,14.449394775390624,-0.09285151958465576,-0.06230825558304787,1.7458528280258179
1772456008262393300,14.459393310546876,-0.3017674386501312,0.2382374405860901,1.7092009782791138
1772456008272433400,14.469433349609375,-0.5693264007568359,0.49235737323760986,1.7348573207855225
1772456008282407200,14.4794072265625,-0.8649851679801941,0.7660250067710876,1.7336355447769165
1772456008292423400,14.48942333984375,-1.0140362977981567,0.8759807348251343,1.633453607559204
1772456008302413000,14.4994130859375,-1.1887437105178833,0.9517280459403992,1.4404202699661255
1772456008312464100,14.509464111328125,-1.3829989433288574,1.007927656173706,1.2559388875961304
1772456008322428400,14.519428466796874,-1.5723671913146973,1.0433578491210938,1.1618657112121582
1772456008333361700,14.530361572265624,-1.6994271278381348,1.0543533563613892,1.1716395616531372
1772456008355003000,14.5520029296875,-1.7238616943359375,0.9761626720428467,1.3927727937698364
1772456008362505700,14.559505615234375,-1.4257594347000122,0.9346238374710083,1.4355332851409912
1772456008372534800,14.56953466796875,-1.2192870378494263,0.7757988572120667,1.4172073602676392
1772456008382533600,14.57953369140625,-1.047023057937622,0.5180137157440186,1.2669345140457153
1772456008392578600,14.58957861328125,-0.7476990818977356,0.23945917189121246,1.0201449394226074
1772456008402560500,14.599560546875,-0.33475416898727417,-0.0012217304902151227,0.740368664264679
1772456008412588500,14.609588623046875,0.2577851414680481,-0.33719760179519653,0.2968805134296417
1772456008422611200,14.619611083984376,0.6206390857696533,-0.5864306092262268,0.08307767659425735
1772456008432956700,14.629956787109375,0.9272934198379517,-0.8319984674453735,0.06963863968849182
1772456008442618400,14.639618408203125,1.1435397863388062,-1.0348057746887207,0.1466076523065567
1772456008462644200,14.659644287109375,1.4526375532150269,-1.2877039909362793,0.3494149148464203
1772456008472684800,14.669684814453126,1.540602207183838,-1.3781119585037231,0.44715335965156555
1772456008482656800,14.67965673828125,1.5735888481140137,-1.4599679708480835,0.5277875661849976
1772456008493286000,14.690285888671875,1.5711454153060913,-1.518610954284668,0.5546656250953674
1772456008502682000,14.69968212890625,1.5357152223587036,-1.5344934463500977,0.5510004758834839
1772456008514373000,14.711373046875,1.4685200452804565,-1.49906325340271,0.48258355259895325
1772456008522719000,14.719718994140624,1.3842206001281738,-1.4013248682022095,0.4080579876899719
1772456008533051000,14.73005078125,1.1985175609588623,-1.1337659358978271,0.26022860407829285
1772456008542745600,14.73974560546875,1.0531316995620728,-0.9199630618095398,0.15393804013729095
1772456008562773000,14.75977294921875,0.6731734871864319,-0.5326744914054871,0.10506882518529892
1772456008572793300,14.76979345703125,0.42638394236564636,-0.3396410644054413,0.16371189057826996
1772456008582786300,14.779786376953124,0.15515977144241333,-0.13561208546161652,0.21624629199504852
1772456008592829200,14.7898291015625,-0.10751228034496307,0.07452555745840073,0.2528982162475586
1772456008602821000,14.799821044921876,-0.32498031854629517,0.2687807083129883,0.304210901260376
1772456008612834800,14.809834716796875,-0.5057964324951172,0.45692721009254456,0.3066543638706207
1772456008622824700,14.81982470703125,-0.6902777552604675,0.6230825781822205,0.2968805134296417
1772456008633174500,14.830174560546874,-0.8833111524581909,0.7367035150527954,0.32620203495025635
1772456008642823000,14.839822998046875,-1.0824532508850098,0.7770205736160278,0.35185837745666504
1772456008653443600,14.850443603515625,-1.2877039909362793,0.7782423496246338,0.3530801236629486
1772456008675364600,14.872364501953125,-1.5613715648651123,0.8210029006004333,0.5363397002220154
1772456008682857200,14.879857177734374,-1.6688838005065918,0.7733554244041443,0.5387831330299377
1772456008692862000,14.889862060546875,-1.7678439617156982,0.6902777552604675,0.5253441333770752
1772456008702850800,14.899850830078124,-1.8374826908111572,0.5949827432632446,0.5925393104553223
1772456008712887800,14.9098876953125,-1.8594738245010376,0.4801400899887085,0.6841690540313721
1772456008722850300,14.919850341796876,-1.793500304222107,0.34086281061172485,0.7440338730812073
1772456008733170400,14.93017041015625,-1.63467538356781,0.17104226350784302,0.8051204085350037
1772456008742850600,14.9398505859375,-1.3903292417526245,-0.021991148591041565,0.7709119319915771
1772456008772855000,14.96985498046875,-0.11972958594560623,-0.34208452701568604,0.11972958594560623
1772456008782841000,14.979841064453124,0.31154128909111023,-0.44715335965156555,0.042760565876960754
1772456008792896300,14.989896240234375,0.6914994716644287,-0.5681046843528748,-0.03787364438176155
1772456008802861800,14.99986181640625,0.9969320893287659,-0.6585127115249634,-0.1014036312699318
1772456008813475800,15.010475830078125,1.2962560653686523,-0.7293730974197388,-0.09529497474431992
1772456008822884600,15.019884521484375,1.3915510177612305,-0.7684684991836548,-0.04642575979232788
1772456008834832600,15.03183251953125,1.4330898523330688,-0.8051204085350037,-0.02687807008624077
1772456008852971300,15.04997119140625,1.3939944505691528,-0.846659243106842,0.00366519158706069
1772456008873009200,15.070009033203124,1.2119566202163696,-0.779464066028595,0.05497787147760391
1772456008882982400,15.079982421875,1.1105530261993408,-0.7086036801338196,0.14905111491680145
1772456008893014000,15.090013916015625,0.9724974632263184,-0.6316346526145935,0.19425514340400696
1772456008903018500,15.1000185546875,0.8002334833145142,-0.5742133259773254,0.1722639948129654
1772456008913074400,15.110074462890625,0.5937610268592834,-0.5192354321479797,0.1258382350206375
1772456008923046000,15.1200458984375,0.4043927788734436,-0.4105014503002167,0.1514945775270462
1772456008933383000,15.1303828125,0.09773843735456467,-0.1417207419872284,0.15393804013729095
1772456008943073500,15.140073486328125,-0.12095131725072861,0.05009094998240471,0.15027284622192383
1772456008953123300,15.150123291015625,-0.33108896017074585,0.22846360504627228,0.14416420459747314
1772456008963097300,15.160097412109375,-0.5290092825889587,0.38606682419776917,0.14416420459747314
1772456008983117300,15.180117431640625,-0.9297369122505188,0.6707300543785095,0.23945917189121246
1772456008995676400,15.192676513671875,-1.0836749076843262,0.779464066028595,0.3543018400669098
1772456009003176700,15.2001767578125,-1.226617455482483,0.8515461683273315,0.4251621961593628
1772456009013192000,15.21019189453125,-1.3768903017044067,0.9077457785606384,0.46303585171699524
1772456009023181000,15.22018115234375,-1.5125023126602173,0.9566149711608887,0.48869219422340393
1772456009033536300,15.230536376953125,-1.6139060258865356,0.9871582388877869,0.5070181488990784
1772456009043202600,15.24020263671875,-1.654223084449768,0.9859365224838257,0.5375614166259766
1772456009053218000,15.250218017578124,-1.626123309135437,0.9553932547569275,0.5400048494338989
1772456009063215400,15.26021533203125,-1.528384804725647,0.8894197940826416,0.4764748811721802
1772456009073254700,15.270254638671876,-1.2522737979888916,0.7257078886032104,0.2174680233001709
1772456009083476700,15.280476806640625,-0.9639453291893005,0.6145304441452026,-0.06230825558304787
1772456009093244400,15.290244384765625,-0.5998696684837341,0.5302310585975647,-0.27122417092323303
1772456009103211300,15.300211181640625,-0.22846360504627228,0.4386012554168701,-0.32498031854629517
1772456009113264000,15.31026416015625,0.12828169763088226,0.2871066629886627,-0.3176499307155609
1772456009123203300,15.320203369140625,0.475253164768219,0.12095131725072861,-0.27611109614372253
1772456009134164000,15.3311640625,0.7635815739631653,-0.02687807008624077,-0.21868975460529327
1772456009143214300,15.34021435546875,0.979827880859375,-0.14905111491680145,-0.17348572611808777
1772456009154894800,15.351894775390624,1.1520918607711792,-0.2528982162475586,-0.11239920556545258
1772456009163210500,15.36021044921875,1.2608258724212646,-0.35063666105270386,-0.04398229718208313
1772456009173228300,15.370228271484375,1.3182471990585327,-0.4544837474822998,0.03420845419168472
1772456009203184600,15.4001845703125,1.2767083644866943,-0.6780604124069214,0.0354301854968071
1772456009213199000,15.41019921875,1.1679743528366089,-0.6499606370925903,-0.0806342139840126
1772456009223200500,15.420200439453126,1.0555751323699951,-0.598647952079773,-0.14294247329235077
1772456009233557500,15.4305576171875,0.9028588533401489,-0.5375614166259766,-0.19914206862449646
1772456009243208400,15.44020849609375,0.7305948138237,-0.46303585171699524,-0.2565633952617645
1772456009253208300,15.450208251953125,0.5497786998748779,-0.3689626157283783,-0.2541199326515198
1772456009263184400,15.460184326171875,0.36163222789764404,-0.2590068578720093,-0.21135938167572021
1772456009273216300,15.47021630859375,0.17104226350784302,-0.13439035415649414,-0.10018189996480942
1772456009283201000,15.480200927734375,-0.0403171069920063,-0.012217304669320583,0.010995574295520782
1772456009303200800,15.50020068359375,-0.48747047781944275,0.24068090319633484,0.11362093687057495
1772456009315726600,15.5127265625,-0.6939429044723511,0.3591887652873993,0.13927727937698364
1772456009323217700,15.5202177734375,-0.8772025108337402,0.44715335965156555,0.16737708449363708
1772456009333536500,15.53053662109375,-1.0335839986801147,0.5057964324951172,0.15882496535778046
1772456009343232800,15.540232666015624,-1.1630873680114746,0.5619960427284241,0.13805554807186127
1772456009353259000,15.550259033203124,-1.370781660079956,0.6328563690185547,0.15027284622192383
1772456009363209500,15.56020947265625,-1.5027284622192383,0.6487388610839844,0.19303341209888458
1772456009373240600,15.570240478515625,-1.5821410417556763,0.6475171446800232,0.2590068578720093
1772456009383211500,15.58021142578125,-1.588249683380127,0.6230825781822205,0.3066543638706207
1772456009413207300,15.610207275390625,-1.1728612184524536,0.4092797040939331,-0.19914206862449646
1772456009423203600,15.62020361328125,-0.8527678847312927,0.31642818450927734,-0.3604104816913605
1772456009433547000,15.630547119140624,-0.45326200127601624,0.21013765037059784,-0.44104471802711487
1772456009443200000,15.640199951171875,-0.00366519158706069,0.06841690838336945,-0.5595525503158569
1772456009453827800,15.650827880859374,0.4899139404296875,-0.10506882518529892,-0.5681046843528748
1772456009463213300,15.66021337890625,0.940732479095459,-0.29565876722335815,-0.44104471802711487
1772456009474849000,15.67184912109375,1.2705997228622437,-0.4691445231437683,-0.3836233615875244
1772456009483225900,15.680225830078125,1.6285667419433594,-0.6450737118721008,-0.5180137157440186
1772456009493232000,15.690232177734375,1.7812830209732056,-0.7110471725463867,-0.5595525503158569
1772456009513226800,15.710226806640625,1.9144517183303833,-0.8674286603927612,-0.50335294008255
1772456009523200500,15.720200439453125,1.920560359954834,-0.9566149711608887,-0.475253164768219
1772456009533518600,15.7305185546875,1.8753563165664673,-1.0225883722305298,-0.455705463886261
1772456009543195600,15.740195556640625,1.7837265729904175,-1.0555751323699951,-0.4642575979232788
1772456009553216000,15.750216064453125,1.653001308441162,-1.0409144163131714,-0.485027015209198
1772456009563174400,15.76017431640625,1.4721852540969849,-0.979827880859375,-0.5192354321479797
1772456009573183000,15.770182861328125,1.2486085891723633,-0.8698720932006836,-0.5387831330299377
1772456009583162400,15.780162353515625,1.0067058801651,-0.7000515460968018,-0.5277875661849976
1772456009593189400,15.790189453125,0.7721336483955383,-0.5009095072746277,-0.44593164324760437
1772456009603149300,15.8001494140625,0.5070181488990784,-0.2981022298336029,-0.31031954288482666
1772456009623156500,15.820156494140624,-0.3176499307155609,0.19547687470912933,0.09407325088977814
1772456009635967700,15.8329677734375,-0.6633996367454529,0.4239404797554016,0.1368338167667389
1772456009643159800,15.840159912109375,-0.9737191796302795,0.646295428276062,0.1270599663257599
1772456009653158400,15.850158447265626,-1.2302825450897217,0.8222246170043945,0.08307767659425735
1772456009663162600,15.86016259765625,-1.4196507930755615,0.950506329536438,0.04153883829712868
1772456009673178600,15.8701787109375,-1.598023533821106,1.0299187898635864,0.021991148591041565
1772456009683130600,15.880130615234375,-1.8020524978637695,1.0616837739944458,0.03420845419168472
1772456009693131300,15.89013134765625,-1.9999728202819824,1.0555751323699951,0.05009094998240471
1772456009703119000,15.900119140625,-2.163684606552124,1.016479730606079,0.02932153269648552
1772456009713151000,15.91015087890625,-2.2687535285949707,0.950506329536438,-0.04153883829712868
1772456009733424000,15.930424072265625,-2.3066272735595703,0.7867944240570068,-0.2871066629886627
1772456009743254000,15.94025390625,-2.2540926933288574,0.6841690540313721,-0.40194934606552124
1772456009753119000,15.950118896484375,-2.1624629497528076,0.5705481171607971,-0.39584067463874817
1772456009763073000,15.960072998046876,-1.947438359260559,0.36163222789764404,-0.6414085030555725
1772456009773703700,15.97070361328125,-1.7580702304840088,0.17104226350784302,-0.7648032903671265
1772456009783109600,15.980109619140626,-1.5125023126602173,-0.04153883829712868,-0.7941248416900635
1772456009794764800,15.991764892578125,-1.216843605041504,-0.26145032048225403,-0.8356636762619019
1772456009803075800,16.000075927734375,-0.9443976879119873,-0.485027015209198,-0.7440338730812073
1772456009833448000,16.030447998046874,-0.1258382350206375,-1.2278391122817993,0.12950342893600464
1772456009843080400,16.04008056640625,0.07208210229873657,-1.380555510520935,0.21135938167572021
1772456009853095000,16.050094970703125,0.251676470041275,-1.4978415966033936,0.2675589919090271
1772456009863095800,16.060095703125,0.4031710624694824,-1.588249683380127,0.4434881806373596
1772456009873116700,16.07011669921875,0.5338962078094482,-1.6236798763275146,0.5180137157440186
1772456009883072500,16.080072509765625,0.6511823534965515,-1.6310101747512817,0.49846604466438293
1772456009893088300,16.090088134765626,0.8185594081878662,-1.5833626985549927,0.42271876335144043
1772456009903386000,16.10038623046875,0.8772025108337402,-1.5015068054199219,0.22968533635139465
1772456009934003700,16.131003662109375,0.7672467231750488,-0.9993755221366882,-0.43737950921058655
1772456009943074000,16.140073974609376,0.6145304441452026,-0.8332201838493347,-0.5619960427284241
1772456009955628000,16.1526279296875,0.4349360466003418,-0.6609562039375305,-0.6157521605491638
1772456009963126800,16.160126708984375,0.26633724570274353,-0.4642575979232788,-0.5057964324951172
1772456009973130200,16.170130126953126,0.08552113175392151,-0.26633724570274353,-0.22846360504627228
1772456009983120100,16.1801201171875,-0.12339477986097336,-0.10873401165008545,0.08185594528913498
1772456009993151200,16.190151123046874,-0.3481931984424591,0.039095375686883926,0.3396410644054413
1772456010003119600,16.20011962890625,-0.5510004758834839,0.20525072515010834,0.5448917746543884
1772456010013129200,16.210129150390625,-0.7147123217582703,0.3885102868080139,0.6939429044723511
1772456010033489000,16.230489013671875,-1.0396926403045654,0.8222246170043945,0.6328563690185547
1772456010043137800,16.2401376953125,-1.1435397863388062,1.0005972385406494,0.5400048494338989
1772456010053158100,16.250158203125,-1.23394775390625,1.1557570695877075,0.45814892649650574
1772456010063162400,16.260162353515625,-1.302364706993103,1.2901474237442017,0.4105014503002167
1772456010073192000,16.27019189453125,-1.361007809638977,1.3829989433288574,0.4153883755207062
1772456010083152100,16.280152099609374,-1.370781660079956,1.4391984939575195,0.44226643443107605
1772456010093762000,16.290761962890624,-1.3329079151153564,1.4721852540969849,0.30054569244384766
1772456010103177000,16.300177001953124,-1.2779301404953003,1.470963478088379,0.18448130786418915
1772456010114791400,16.31179150390625,-1.1679743528366089,1.4294246435165405,0.1514945775270462
1772456010143188500,16.3401884765625,-0.5729916095733643,1.1007791757583618,-0.028099801391363144
1772456010153192400,16.3501923828125,-0.3677408695220947,0.9272934198379517,-0.04642575979232788
1772456010163147500,16.3601474609375,-0.16982053220272064,0.6841690540313721,-0.01710422709584236
1772456010173152800,16.37015283203125,0.13072516024112701,0.2736676335334778,0.20525072515010834
1772456010183156500,16.380156494140625,0.39217549562454224,0.03787364438176155,0.3445279896259308
1772456010193191200,16.390191162109375,0.6096435189247131,-0.21013765037059784,0.5644394755363464
1772456010203153000,16.40015283203125,0.740368664264679,-0.4544837474822998,0.7623597979545593
1772456010213177900,16.410177734375,0.8491026759147644,-0.6731734871864319,0.8808676600456238
1772456010223172000,16.420172119140624,0.9346238374710083,-0.8772025108337402,0.8527678847312927
1772456010253865000,16.450864990234376,0.9761626720428467,-1.3646728992462158,0.4715879559516907
1772456010263266600,16.4602666015625,0.9615018963813782,-1.4330898523330688,0.2687807083129883
1772456010275779300,16.472779296875,0.9297369122505188,-1.4575244188308716,0.02076941914856434
1772456010283265500,16.480265625,0.8833111524581909,-1.4501941204071045,-0.2125810980796814
1772456010293264000,16.490263916015625,0.8112290501594543,-1.389107584953308,-0.394618958234787
1772456010303258400,16.50025830078125,0.6646214127540588,-1.214400053024292,-0.5742133259773254
1772456010313303300,16.51030322265625,0.5827654600143433,-1.0690141916275024,-0.5155702829360962
1772456010323304700,16.5203046875,0.5204572081565857,-0.8881980776786804,-0.32498031854629517
1772456010353448000,16.550447998046874,0.18936823308467865,-0.21868975460529327,0.16859880089759827
1772456010363452000,16.560451904296876,0.03420845419168472,0.009773843921720982,0.3066543638706207
1772456010373505300,16.57050537109375,-0.14049901068210602,0.2528982162475586,0.4129449129104614
1772456010383518700,16.580518798828123,-0.3237585723400116,0.5021312236785889,0.4434881806373596
1772456010393562000,16.59056201171875,-0.48869219422340393,0.7367035150527954,0.43737950921058655
1772456010403514400,16.600514404296874,-0.6389650702476501,0.9370672702789307,0.44837507605552673
1772456010414164000,16.6111640625,-0.7709119319915771,1.0946705341339111,0.46670106053352356
1772456010423583200,16.620583251953125,-0.8576548099517822,1.1911872625350952,0.4691445231437683
1772456010435904500,16.632904541015623,-0.9382890462875366,1.2596040964126587,0.37751471996307373
1772456010473731800,16.67073193359375,-0.846659243106842,1.0519099235534668,-0.21991148591041565
1772456010483736300,16.680736328125,-0.740368664264679,0.9260717034339905,-0.2981022298336029
1772456010493791700,16.690791748046873,-0.6010913848876953,0.7648032903671265,-0.24923302233219147
1772456010503786800,16.700786865234374,-0.4337143301963806,0.5619960427284241,-0.2015855312347412
1772456010513803800,16.7108037109375,-0.251676470041275,0.34697145223617554,-0.18448130786418915
1772456010523755300,16.72075537109375,-0.05619960278272629,0.13072516024112701,-0.1258382350206375
1772456010534081300,16.731081298828126,0.13927727937698364,-0.08552113175392151,-0.04153883829712868
1772456010543782700,16.74078271484375,0.32620203495025635,-0.3017674386501312,-0.036651913076639175
1772456010563748900,16.760748779296875,0.6792821288108826,-0.779464066028595,0.042760565876960754
1772456010574357500,16.771357421875,0.769690215587616,-0.9541715383529663,0.08796459436416626
1772456010583740000,16.780739990234373,0.8527678847312927,-1.1056660413742065,0.11728613078594208
1772456010596251100,16.793251220703127,0.9040805697441101,-1.2327260971069336,0.10506882518529892
1772456010603744500,16.80074462890625,0.9346238374710083,-1.3158037662506104,0.06719517707824707
1772456010613745200,16.8107451171875,0.9419541954994202,-1.3536773920059204,-0.009773843921720982
1772456010623737900,16.82073779296875,0.9248499870300293,-1.3439035415649414,-0.12461651116609573
1772456010634098400,16.831098388671876,0.8796459436416626,-1.2705997228622437,-0.27611109614372253
1772456010643746600,16.84074658203125,0.789237916469574,-1.1410962343215942,-0.43615779280662537
1772456010653750500,16.85075048828125,0.66584312915802,-0.9810495972633362,-0.5742133259773254
1772456010673762600,16.870762451171874,0.3933972120285034,-0.5766568183898926,-0.47769662737846375
1772456010683722000,16.880721923828126,0.25534167885780334,-0.33475416898727417,-0.3188716471195221
1772456010693724200,16.89072412109375,0.028099801391363144,0.02932153269648552,-0.06719517707824707
1772456010703698400,16.900698486328125,-0.14416420459747314,0.2638937830924988,0.06230825558304787
1772456010713714200,16.910714111328126,-0.3225368559360504,0.50335294008255,0.13439035415649414
1772456010723688000,16.92068798828125,-0.4740314185619354,0.7354817390441895,0.18448130786418915
1772456010734605800,16.931605712890626,-0.5900958180427551,0.9272934198379517,0.18081611394882202
1772456010743666400,16.94066650390625,-0.6878342628479004,1.1007791757583618,0.12339477986097336
1772456010755278000,16.952278076171876,-0.788016140460968,1.2498302459716797,0.00733038317412138
1772456010783670000,16.980669921875,-1.0005972385406494,1.4880677461624146,-0.8234463334083557
1772456010793687000,16.99068701171875,-1.0018190145492554,1.5369369983673096,-1.19607412815094
1772456010803638800,17.000638671875,-0.979827880859375,1.6297885179519653,-1.6310101747512817
1772456010813684700,17.010684814453125,-0.9175195693969727,1.7446311712265015,-1.9620991945266724
1772456010823727400,17.020727294921876,-0.8124507665634155,1.8167132139205933,-2.177123785018921
1772456010834048800,17.031048828125,-0.6255260109901428,1.909564733505249,-2.4080307483673096
1772456010843690200,17.040690185546875,-0.46181413531303406,1.9352210760116577,-2.515542984008789
1772456010853687600,17.0506875,-0.294437050819397,2.0146336555480957,-2.5228734016418457
1772456010863660500,17.06066064453125,-0.11728613078594208,2.0060815811157227,-2.39214825630188
1772456010894260700,17.0912607421875,0.41661009192466736,0.8991936445236206,-1.0250319242477417
1772456010903634200,17.10063427734375,0.49846604466438293,0.42149701714515686,-0.44226643443107605
1772456010916149200,17.113149169921876,0.6218608021736145,-0.04398229718208313,0.08185594528913498
1772456010923641300,17.120641357421874,0.7391469478607178,-0.4508185386657715,0.4202753007411957
1772456010933961000,17.1309609375,0.8051204085350037,-0.7672467231750488,0.5937610268592834
1772456010943646000,17.14064599609375,0.8429940342903137,-1.0702359676361084,0.7061602473258972
1772456010953668600,17.150668701171874,0.8344419002532959,-1.3548991680145264,0.856433093547821
1772456010963636000,17.160635986328124,0.788016140460968,-1.5650367736816406,1.0225883722305298
1772456010973638000,17.170637939453126,0.7073819637298584,-1.7006487846374512,1.1838568449020386
1772456010993653500,17.190653564453125,0.6096435189247131,-1.683544635772705,1.4563027620315552
1772456011003611600,17.200611572265625,0.5363397002220154,-1.615127682685852,1.5601497888565063
1772456011013639700,17.2106396484375,0.4642575979232788,-1.5063936710357666,1.587027907371521
