time,seconds_elapsed,z,y,x
1772455995963498500,2.16049853515625,0.7876923680305481,0.38546648621559143,0.05506663769483566
1772455995973432600,2.1704326171875,-1.5873557329177856,-0.8882488012313843,-1.1420341730117798
1772455995984095200,2.18109521484375,-8.250418663024902,11.841721534729004,-2.276885747909546
1772455995994081300,2.191081298828125,-8.142680168151855,11.944672584533691,-2.3127987384796143
1772455996004128300,2.201128173828125,-8.315062522888184,11.635820388793945,-2.10210919380188
1772455996014139100,2.21113916015625,-8.396465301513672,11.511322021484375,-2.164358377456665
1772455996024487400,2.2214873046875,-8.372523307800293,11.109095573425293,-1.7477672100067139
1772455996034148900,2.23114892578125,-8.382100105285645,11.006145477294922,-1.845929503440857
1772455996044198400,2.241198486328125,-8.279149055480957,10.620678901672363,-1.4963760375976562
1772455996054159000,2.2511591796875,-8.283937454223633,10.589553833007812,-1.4652514457702637
1772455996064197000,2.261197021484375,-8.305485725402832,10.29746150970459,-1.139639973640442
1772455996074181600,2.271181640625,-8.271966934204102,10.398017883300781,-1.2186486721038818
1772455996105815300,2.302815185546875,-8.078036308288574,9.564835548400879,-0.689530074596405
1772455996114228700,2.311228759765625,-8.101978302001953,9.555258750915527,-0.6320692300796509
1772455996124582000,2.321581787109375,-8.027758598327637,9.2033109664917,-0.3974374830722809
1772455996134244600,2.33124462890625,-7.996633529663086,9.167398452758789,-0.3711012601852417
1772455996144281900,2.34128173828125,-7.826645374298096,8.863334655761719,-0.12689268589019775
1772455996154287000,2.351287109375,-7.888894557952881,8.777143478393555,-0.1628057211637497
1772455996164339700,2.361339599609375,-7.735665798187256,8.439560890197754,0.05506663769483566
1772455996174319000,2.371319091796875,-7.716512203216553,8.456320762634277,0.07182604819536209
1772455996184341200,2.38134130859375,-7.5968017578125,8.068459510803223,0.363918662071228
1772455996194331100,2.3913310546875,-7.5632829666137695,8.073247909545898,0.29209262132644653
1772455996204374300,2.401374267578125,-7.47230339050293,7.714118003845215,0.40940847992897034
1772455996214349300,2.411349365234375,-7.395689010620117,7.704541206359863,0.4213795065879822
1772455996224681500,2.421681396484375,-7.196970462799072,7.311892032623291,0.5482721924781799
1772455996234355700,2.431355712890625,-7.220912456512451,7.19936466217041,0.5889736413955688
1772455996245000700,2.442000732421875,-7.070077419281006,6.936002254486084,0.7038952708244324
1772455996254378800,2.451378662109375,-7.089231014251709,6.950367450714111,0.7876923680305481
1772455996266880300,2.46388037109375,-6.780379295349121,6.658275127410889,0.9074024558067322
1772455996274408400,2.471408447265625,-6.75883150100708,6.687005519866943,0.8858546018600464
1772455996284447700,2.48144775390625,-6.528987884521484,6.31829833984375,1.0773907899856567
1772455996304467500,2.501467529296875,-6.387730121612549,5.925649166107178,1.1659762859344482
1772455996314465300,2.51146533203125,-6.3973069190979,5.9304375648498535,1.1516109704971313
1772455996324822300,2.521822265625,-6.088454723358154,5.590460777282715,1.2665326595306396
1772455996334514200,2.53151416015625,-6.119579315185547,5.6455278396606445,1.2761094570159912
1772455996344534300,2.5415341796875,-5.872976779937744,5.257667064666748,1.3120225667953491
1772455996354541600,2.55154150390625,-5.8873419761657715,5.329493045806885,1.403002142906189
1772455996364573000,2.561572998046875,-5.621585369110107,4.93923807144165,1.3766659498214722
1772455996374549200,2.57154931640625,-5.609614372253418,4.9583916664123535,1.4197616577148438
1772455996384560600,2.581560546875,-5.348646640777588,4.759673118591309,1.3120225667953491
1772455996414578400,2.611578369140625,-5.2049946784973145,4.256890773773193,1.436521053314209
1772455996426526000,2.62352587890625,-4.900930881500244,3.9193081855773926,1.4484920501708984
1772455996434615600,2.631615478515625,-4.869806289672852,3.9408559799194336,1.4772224426269531
1772455996444635100,2.64163525390625,-4.568136692047119,3.667917013168335,1.381454348564148
1772455996454599200,2.65159912109375,-4.6255974769592285,3.7636849880218506,1.4915876388549805
1772455996464611600,2.661611572265625,-4.240131378173828,3.406949043273926,1.4700398445129395
1772455996474602200,2.671602294921875,-4.288015365600586,3.4811692237854004,1.4389152526855469
1772455996484630300,2.68163037109375,-4.055777549743652,3.2369606494903564,1.3431471586227417
1772455996514601700,2.711601806640625,-3.667917013168335,2.8395233154296875,1.3670891523361206
1772455996524939500,2.721939453125,-3.4548330307006836,2.604891538619995,1.3982137441635132
1772455996534595600,2.731595703125,-3.3925838470458984,2.499546527862549,1.3910311460494995
1772455996544624400,2.741624267578125,-3.0789434909820557,2.2697031497955322,1.2545616626739502
1772455996554620700,2.75162060546875,-3.1531636714935303,2.3104045391082764,1.3096283674240112
1772455996565254000,2.76225390625,-2.801215887069702,2.0661959648132324,1.3024457693099976
1772455996574614800,2.77161474609375,-2.873042106628418,2.006340980529785,1.2401964664459229
1772455996587100000,2.784099853515625,-2.52109432220459,1.7980455160140991,1.0773907899856567
1772455996614627300,2.81162744140625,-2.2601263523101807,1.6041151285171509,0.9385270476341248
1772455996624946400,2.821946533203125,-1.9919757843017578,1.280897855758667,0.9169792532920837
1772455996634624300,2.831624267578125,-1.968033790588379,1.2713210582733154,0.9097966551780701
1772455996644649700,2.841649658203125,-1.6376339197158813,1.137245774269104,0.7972691655158997
1772455996654611500,2.851611572265625,-1.5849615335464478,1.194706678390503,0.7350199222564697
1772455996664615000,2.861614990234375,-1.2234370708465576,0.9002198576927185,0.5746083855628967
1772455996674609700,2.871609619140625,-1.3096283674240112,0.8810662031173706,0.545877993106842
1772455996684629000,2.88162890625,-0.9720458984375,0.7565677165985107,0.40462008118629456
1772455996694601200,2.891601318359375,-0.9864110946655273,0.7230489253997803,0.4692635238170624
1772455996725565000,2.92256494140625,-0.6272808313369751,0.4357447028160095,0.29209262132644653
1772455996734601700,2.931601806640625,-0.608127236366272,0.33039984107017517,0.2992752194404602
1772455996746205400,2.943205322265625,-0.4429273009300232,0.35434186458587646,0.22266076505184174
1772455996754617000,2.9516171875,-0.35673606395721436,0.36152446269989014,0.31842881441116333
1772455996764643300,2.961643310546875,-0.35673606395721436,0.3878606855869293,0.22266076505184174
1772455996774599700,2.971599609375,-0.43095630407333374,0.37828385829925537,0.21308395266532898
1772455996784810200,2.981810302734375,-0.37828385829925537,0.44771572947502136,0.08140286058187485
1772455996794610700,2.991610595703125,-0.4572925269603729,0.3902548849582672,0.13168109953403473
1772455996804640500,3.001640625,-0.47884035110473633,0.4189853072166443,0.019153613597154617
1772455996834641000,3.031640869140625,-0.7230489253997803,0.5410895943641663,-0.22744916379451752
1772455996844664800,3.041664794921875,-0.7661445140838623,0.43095630407333374,-0.3232172429561615
1772455996854619000,3.051618896484375,-0.9481038451194763,0.1867477297782898,-0.3447650372982025
1772455996864622800,3.061622802734375,-0.871489405632019,-0.016759412363171577,-0.40462008118629456
1772455996874619600,3.07161962890625,-0.8451532125473022,0.016759412363171577,-0.47644615173339844
1772455996885257500,3.082257568359375,-0.8547300100326538,0.19393034279346466,-0.40462008118629456
1772455996894613000,3.091613037109375,-0.8403648138046265,0.16759411990642548,-0.36152446269989014
1772455996907109600,3.104109619140625,-0.9145850539207458,0.1388636976480484,-0.47644615173339844
1772455996934631000,3.131630859375,-0.8188169598579407,0.07422025501728058,-0.6200982332229614
1772455996944639200,3.14163916015625,-0.5746083855628967,-0.004788403399288654,-0.5506663918495178
1772455996954644500,3.15164453125,-0.5602431893348694,0.1173158809542656,-0.4572925269603729
1772455996964674800,3.1616748046875,-0.5434837937355042,-0.06464344263076782,-0.27054479718208313
1772455996974644500,3.17164453125,-0.45010992884635925,-0.10295066982507706,-0.2059013396501541
1772455996984677000,3.181677001953125,-0.42616790533065796,-0.06464344263076782,-0.23942017555236816
1772455996994665200,3.191665283203125,-0.3687070608139038,0.08858546614646912,-0.363918662071228
1772455997004704300,3.201704345703125,-0.35434186458587646,0.17477671802043915,-0.3758896589279175
1772455997014673400,3.21167333984375,-0.44532153010368347,0.19393034279346466,-0.3998316824436188
1772455997034694400,3.2316943359375,-0.4429273009300232,0.2849099934101105,-0.304063618183136
1772455997045337000,3.242337158203125,-0.31124621629714966,0.3495534360408783,-0.31603461503982544
1772455997054699500,3.251699462890625,-0.3447650372982025,0.2561795711517334,-0.33997663855552673
1772455997066342100,3.263342041015625,-0.3711012601852417,0.17477671802043915,-0.38546648621559143
1772455997074716000,3.2717158203125,-0.4644751250743866,0.14604631066322327,-0.47884035110473633
1772455997084745000,3.281744873046875,-0.5674257874488831,0.19632454216480255,-0.49799394607543945
1772455997094709500,3.29170947265625,-0.5315127968788147,-0.07661445438861847,-0.4381389021873474
1772455997104719400,3.30171923828125,-0.5482721924781799,-0.08140286058187485,-0.3974374830722809
1772455997114704600,3.31170458984375,-0.6943184733390808,-0.2082955539226532,-0.43095630407333374
1772455997144724200,3.34172412109375,-0.9696516990661621,-0.5674257874488831,-0.5363011956214905
1772455997154707500,3.35170751953125,-1.1540051698684692,-0.5985504388809204,-0.5123591423034668
1772455997164743000,3.361742919921875,-1.278503656387329,-0.5985504388809204,-0.6655880808830261
1772455997174707000,3.37170703125,-1.434126853942871,-0.6224924325942993,-0.6799532771110535
1772455997184719600,3.3817197265625,-1.5322890281677246,-0.3902548849582672,-0.5554547905921936
1772455997194711800,3.3917119140625,-1.5658079385757446,-0.2849099934101105,-0.7326257228851318
1772455997205343500,3.402343505859375,-1.4700398445129395,-0.2753331959247589,-0.7015010714530945
1772455997214721300,3.41172119140625,-1.4748282432556152,-0.3495534360408783,-0.6775590777397156
1772455997227560000,3.424559814453125,-1.4700398445129395,-0.35913026332855225,-0.6153098344802856
1772455997254732000,3.45173193359375,-1.556231141090393,-0.8379706144332886,-0.5219359993934631
1772455997264740000,3.461739990234375,-1.4221558570861816,-0.7781155705451965,-0.29209262132644653
1772455997274727700,3.471727783203125,-1.4269442558288574,-1.0247182846069336,-0.2322375625371933
1772455997284747800,3.481747802734375,-1.1420341730117798,-1.1444283723831177,-0.05506663769483566
1772455997294708500,3.49170849609375,-1.0079588890075684,-1.5658079385757446,-0.10295066982507706
1772455997304712400,3.50171240234375,-0.8188169598579407,-1.403002142906189,-0.011971008032560349
1772455997314689800,3.511689697265625,-0.7996633648872375,-1.6304513216018677,0.023942016065120697
1772455997325022700,3.522022705078125,-0.5578489899635315,-1.678335428237915,0.05267243832349777
1772455997334704600,3.53170458984375,-0.5889736413955688,-1.8363527059555054,0.1843535304069519
1772455997365321000,3.562321044921875,-0.16759411990642548,-1.6855180263519287,0.22026655077934265
1772455997374677200,3.57167724609375,-0.07900865375995636,-1.8555063009262085,0.2346317619085312
1772455997386271000,3.58327099609375,0.0454898327589035,-1.6927006244659424,0.2537853717803955
1772455997394659300,3.591659423828125,0.07900865375995636,-1.886630892753601,0.3232172429561615
1772455997404673800,3.601673828125,-0.07422025501728058,-1.6950948238372803,0.3280056416988373
1772455997414649900,3.61164990234375,-0.06464344263076782,-1.7884687185287476,0.14365209639072418
1772455997424965600,3.621965576171875,-0.3280056416988373,-1.4939818382263184,0.2059013396501541
1772455997434645500,3.6316455078125,-0.4189853072166443,-1.7310078144073486,0.16519992053508759
1772455997464670200,3.661670166015625,-0.5147533416748047,-1.5849615335464478,0.6488286852836609
1772455997474648000,3.67164794921875,-0.5602431893348694,-1.7477672100067139,0.5650315880775452
1772455997484660700,3.68166064453125,-0.5195417404174805,-1.699883222579956,0.49799394607543945
1772455997494656500,3.691656494140625,-0.6991068720817566,-1.9776105880737305,0.4620809257030487
1772455997504706300,3.701706298828125,-0.7230489253997803,-1.8722656965255737,0.47644615173339844
1772455997514709500,3.71170947265625,-0.7876923680305481,-2.0159177780151367,0.524330198764801
1772455997525697500,3.722697509765625,-0.6991068720817566,-1.8818424940109253,0.6392518281936646
1772455997534756600,3.731756591796875,-0.727837324142456,-1.8986018896102905,0.6847416758537292
1772455997554793700,3.751793701171875,-0.5674257874488831,-1.4245500564575195,0.5937620401382446
1772455997564830000,3.761829833984375,-0.4357447028160095,-1.0654197931289673,0.5027823448181152
1772455997574790400,3.771790283203125,-0.27054479718208313,-1.1779472827911377,0.3232172429561615
1772455997584787000,3.781786865234375,-0.2849099934101105,-0.9768342971801758,0.17717093229293823
1772455997594763300,3.79176318359375,-0.3711012601852417,-1.0606313943862915,0.0694318488240242
1772455997604805600,3.8018056640625,-0.4189853072166443,-0.9074024558067322,-0.12210428714752197
1772455997614800100,3.811800048828125,-0.5123591423034668,-0.9457096457481384,-0.3758896589279175
1772455997625126000,3.8221259765625,-0.4118026793003082,-0.8762778043746948,-0.4836287498474121
1772455997634792200,3.831792236328125,-0.40940847992897034,-1.05105459690094,-0.6129156351089478
1772455997644814300,3.841814453125,-0.5339069962501526,-0.8307880163192749,-0.811634361743927
1772455997664809500,3.8618095703125,-0.26336219906806946,-0.7038952708244324,-1.039083480834961
1772455997674800000,3.871800048828125,-0.3256114423274994,-0.8140285611152649,-0.9888052940368652
1772455997685453800,3.882453857421875,-0.2944868206977844,-0.7924807667732239,-0.849941611289978
1772455997694811100,3.89181103515625,-0.2106897532939911,-1.0055646896362305,-0.7805097699165344
1772455997714834700,3.911834716796875,0.090979665517807,-1.2282254695892334,-1.0247182846069336
1772455997725180000,3.922179931640625,0.13168109953403473,-1.039083480834961,-1.1276689767837524
1772455997734846200,3.93184619140625,0.4189853072166443,-1.1994950771331787,-1.2234370708465576
1772455997744879400,3.94187939453125,0.5051765441894531,-1.192312479019165,-1.170764684677124
1772455997754874000,3.9518740234375,0.7876923680305481,-1.2952631711959839,-1.3072341680526733
1772455997774895400,3.971895263671875,1.0199298858642578,-1.2234370708465576,-1.5442601442337036
1772455997784915500,3.98191552734375,1.3024457693099976,-1.1444283723831177,-1.580173134803772
1772455997794910700,3.99191064453125,1.5490485429763794,-1.2186486721038818,-1.656787633895874
1772455997804940300,4.001940185546875,1.7573440074920654,-1.0773907899856567,-1.7932571172714233
1772455997814906600,4.01190673828125,1.9728221893310547,-0.9696516990661621,-1.9800047874450684
1772455997825223000,4.022222900390625,2.0590133666992188,-0.5530605912208557,-2.47560453414917
1772455997834895600,4.0318955078125,2.1978771686553955,-0.5339069962501526,-3.0166940689086914
1772455997845522000,4.04252197265625,2.183511972427368,-0.4213795065879822,-3.5386300086975098
1772455997854892000,4.05189208984375,2.1571757793426514,-0.727837324142456,-3.9408559799194336
1772455997867379700,4.064379638671875,1.9919757843017578,-0.7972691655158997,-4.3622355461120605
1772455997874903600,4.071903564453125,2.0254945755004883,-1.1204863786697388,-4.477157115936279
1772455997884923100,4.081923095703125,1.9847931861877441,-0.8810662031173706,-4.843470096588135
1772455997894899500,4.0918994140625,1.8842366933822632,-0.6272808313369751,-5.1116204261779785
1772455997904901600,4.101901611328125,1.6903064250946045,-0.3758896589279175,-5.020640850067139
1772455997914892500,4.111892578125,1.6519991159439087,-0.44532153010368347,-4.6734819412231445
1772455997925219800,4.1222197265625,1.2976573705673218,-0.3208230137825012,-4.364629745483398
1772455997934868200,4.1318681640625,1.3742717504501343,-0.4118026793003082,-4.129997730255127
1772455997944875300,4.141875244140625,1.1013327836990356,-0.14844051003456116,-3.9863457679748535
1772455997954865200,4.151865234375,1.2665326595306396,-0.08858546614646912,-3.778050184249878
1772455997984911600,4.18191162109375,0.9959878921508789,-0.11013327538967133,-2.6575639247894287
1772455997994905000,4.191905029296875,1.1803414821624756,-0.2561795711517334,-2.229001760482788
1772455998005539800,4.202539794921875,1.4724340438842773,-0.05506663769483566,-1.403002142906189
1772455998014918100,4.211918212890625,1.8531121015548706,0.26575639843940735,-1.048660397529602
1772455998026879000,4.22387890625,1.5945383310317993,0.7086837291717529,-0.646434485912323
1772455998034931200,4.23193115234375,1.7621324062347412,0.9864110946655273,-0.24899697303771973
1772455998044971500,4.241971435546875,1.4413094520568848,0.9313444495201111,0.3663128614425659
1772455998054927400,4.25192724609375,1.7310078144073486,0.6368576288223267,0.9528923034667969
1772455998064931600,4.261931640625,1.599326729774475,0.43335050344467163,1.6903064250946045
1772455998084953900,4.281953857421875,1.9393033981323242,-0.002394201699644327,3.136404275894165
1772455998094933000,4.29193310546875,2.3750481605529785,-0.15322890877723694,3.801992416381836
1772455998104924400,4.30192431640625,2.5761611461639404,-0.5386953949928284,4.4939165115356445
1772455998114919200,4.311919189453125,2.9161376953125,-0.6368576288223267,5.123591423034668
1772455998125263400,4.322263427734375,3.090914487838745,-0.9361328482627869,5.65031623840332
1772455998135250000,4.33225,4.127603530883789,-1.381454348564148,6.325480937957764
1772455998144926000,4.341926025390625,4.704606533050537,-1.7286136150360107,7.017405033111572
1772455998154908400,4.351908447265625,5.700594425201416,-1.2042834758758545,7.55131196975708
1772455998165552600,4.362552734375,6.234501361846924,-0.5506663918495178,8.044517517089844
1772455998187433000,4.384432861328125,6.1315507888793945,0.5626373887062073,8.65982723236084
1772455998194941000,4.39194091796875,5.7987565994262695,0.7829039692878723,8.520963668823242
1772455998204976600,4.4019765625,5.307945251464844,0.5889736413955688,8.307879447937012
1772455998225271300,4.422271240234375,4.256890773773193,-0.26575639843940735,7.9415669441223145
1772455998234954800,4.431954833984375,4.05817174911499,-1.1875240802764893,7.663839817047119
1772455998254970000,4.45197021484375,4.28322696685791,-3.0789434909820557,6.660669326782227
1772455998264992300,4.4619921875,4.520252704620361,-3.7038300037384033,5.846640586853027
1772455998274981400,4.4719814453125,3.8786067962646484,-4.326322555541992,3.6535518169403076
1772455998294998000,4.491998046875,2.964021682739258,-4.668693542480469,1.5610195398330688
1772455998305002500,4.50200244140625,2.6455929279327393,-4.656722068786621,0.6943184733390808
1772455998314984000,4.51198388671875,2.207453966140747,-4.247313976287842,-0.05985504388809204
1772455998325941000,4.52294091796875,2.0374655723571777,-3.845088005065918,-0.5770025849342346
1772455998335009500,4.532009521484375,1.2976573705673218,-3.4356794357299805,-1.091755986213684
1772455998346615800,4.54361572265625,0.8571242094039917,-2.7078421115875244,-1.6400281190872192
1772455998375046700,4.572046630859375,-1.4652514457702637,-0.608127236366272,-3.5170822143554688
1772455998405110300,4.6021103515625,-4.268861770629883,0.8140285611152649,-4.127603530883789
1772455998415108900,4.61210888671875,-4.3622355461120605,0.6631938815116882,-3.5458126068115234
1772455998425448400,4.622448486328125,-4.218583583831787,0.790086567401886,-2.9712042808532715
1772455998435145200,4.632145263671875,-4.050989151000977,1.1755530834197998,-2.7557260990142822
1772455998445166800,4.642166748046875,-3.7852327823638916,1.7597382068634033,-2.513911724090576
1772455998455137300,4.65213720703125,-3.3207578659057617,1.9129672050476074,-2.075772762298584
1772455998465158100,4.662158203125,-2.760514497756958,1.7094600200653076,-1.158793568611145
1772455998475156500,4.672156494140625,-1.9153614044189453,1.2689268589019775,-0.31603461503982544
1772455998545277700,4.742277587890625,6.665457725524902,0.05506663769483566,5.523423194885254
1772455998555264000,4.752263916015625,7.275979042053223,0.304063618183136,6.2392897605896
1772455998565289200,4.762289306640625,7.338228225708008,0.181959331035614,6.768408298492432
1772455998575267300,4.772267333984375,7.812280178070068,-0.8020575642585754,7.067683219909668
1772455998585268000,4.78226806640625,7.90086555480957,-1.7334020137786865,7.2352776527404785
1772455998595244000,4.792244140625,8.192957878112793,-2.612074136734009,7.129932880401611
1772455998605271300,4.802271240234375,8.243236541748047,-2.829946517944336,7.134721279144287
1772455998635264500,4.832264404296875,7.905653953552246,-2.2864625453948975,6.780379295349121
1772455998645915100,4.8429150390625,6.677428722381592,-1.9129672050476074,5.825092792510986
1772455998655288300,4.852288330078125,4.797980308532715,-1.7717092037200928,4.5154643058776855
1772455998666944500,4.863944580078125,3.0095114707946777,-1.5107412338256836,3.162740468978882
1772455998675353000,4.87235302734375,1.316810965538025,-1.0558429956436157,1.6927006244659424
1772455998685363200,4.88236328125,0.1843535304069519,-0.47405192255973816,0.40222588181495667
1772455998705352700,4.902352783203125,-1.3311761617660522,0.6033388376235962,-1.5083470344543457
1772455998715370800,4.912370849609375,-2.1571757793426514,0.7445967197418213,-2.10210919380188
1772455998725718300,4.92271826171875,-2.7269957065582275,0.8212111592292786,-2.406172752380371
1772455998735385000,4.932385009765625,-3.5865142345428467,0.7637503147125244,-2.9065608978271484
1772455998765426200,4.96242626953125,-4.326322555541992,1.0749965906143188,-5.032611846923828
1772455998775393300,4.972393310546875,-4.144362926483154,1.8411411046981812,-5.298368453979492
1772455998785420300,4.982420166015625,-3.97916316986084,2.87064790725708,-5.130774021148682
1772455998795404800,4.99240478515625,-3.44765043258667,3.864241600036621,-4.977545261383057
1772455998806051300,5.00305126953125,-2.43011474609375,4.874594688415527,-4.627991676330566
1772455998815440600,5.012440673828125,-1.6735470294952393,5.480327606201172,-4.015076160430908
1772455998828346400,5.025346435546875,-1.1252747774124146,4.242525577545166,-3.421314239501953
1772455998845500200,5.042500244140625,-0.6584054827690125,1.4987702369689941,-2.583343744277954
1772455998855492900,5.052492919921875,0.45250412821769714,0.10295066982507706,-2.1332337856292725
1772455998865566500,5.06256640625,1.9033904075622559,-0.7948749661445618,-1.400607943534851
1772455998885567000,5.08256689453125,4.378994941711426,-0.5722141861915588,0.730231523513794
1772455998895571200,5.0925712890625,5.583278179168701,-0.014365210197865963,1.5945383310317993
1772455998915590100,5.112590087890625,6.076483726501465,1.0055646896362305,3.093308687210083
1772455998925922000,5.122922119140625,5.647922039031982,1.094150185585022,3.557783842086792
1772455998966279200,5.163279052734375,2.889801502227783,-0.19632454216480255,4.10366153717041
1772455998975672300,5.17267236328125,2.343923568725586,-0.21787235140800476,4.216189384460449
1772455998987298300,5.18429833984375,1.7501614093780518,-0.038307227194309235,4.390965938568115
1772455998995694000,5.192694091796875,1.3934253454208374,0.2561795711517334,4.189853191375732
1772455999005712100,5.202712158203125,1.1252747774124146,0.3878606855869293,3.557783842086792
1772455999015704300,5.212704345703125,0.5147533416748047,0.3878606855869293,2.382230758666992
1772455999026069800,5.22306982421875,-0.1604115068912506,0.19153612852096558,1.0462661981582642
1772455999035731000,5.23273095703125,-0.9313444495201111,-0.1388636976480484,-0.3663128614425659
1772455999065798400,5.26279833984375,-2.2912509441375732,0.0933738648891449,-2.5977089405059814
1772455999075766800,5.272766845703125,-3.421314239501953,1.3910311460494995,-4.122815132141113
1772455999085784800,5.282784912109375,-4.017470359802246,1.7190368175506592,-4.965574264526367
1772455999095768600,5.2927685546875,-4.81473970413208,1.8842366933822632,-5.552153587341309
1772455999115803000,5.312802978515625,-4.879383087158203,1.2761094570159912,-5.224148273468018
1772455999126734800,5.32373486328125,-4.627991676330566,0.9576807022094727,-4.704606533050537
1772455999135801600,5.332801513671875,-4.4508209228515625,0.8762778043746948,-4.199429988861084
1772455999148334000,5.345333984375,-4.158728122711182,0.7829039692878723,-3.6559460163116455
1772455999185901000,5.382901123046875,-1.8148049116134644,0.6560112833976746,-0.5027823448181152
1772455999196271000,5.39327099609375,-0.5482721924781799,0.6512228846549988,0.17238251864910126
1772455999205902000,5.402902099609375,0.6631938815116882,0.5554547905921936,1.039083480834961
1772455999215912400,5.412912353515625,1.7357962131500244,0.22744916379451752,1.8986018896102905
1772455999226299100,5.423299072265625,2.248155355453491,-0.7661445140838623,2.918531894683838
1772455999235946200,5.4329462890625,2.7557260990142822,-1.9512743949890137,3.5266590118408203
1772455999245987300,5.4429873046875,3.0765492916107178,-2.647987127304077,4.010287761688232
1772455999255968000,5.452968017578125,3.4955344200134277,-2.87064790725708,4.141968727111816
1772455999266002200,5.463002197265625,3.8307228088378906,-2.3918075561523438,4.065354347229004
1772455999307652600,5.504652587890625,4.5825018882751465,0.6967126727104187,4.003105163574219
1772455999316009500,5.513009521484375,3.9264907836914062,0.6392518281936646,3.2537200450897217
1772455999326340600,5.523340576171875,3.35667085647583,0.181959331035614,2.2026655673980713
1772455999336046000,5.533046142578125,1.9943699836730957,-0.6655880808830261,0.13168109953403473
1772455999346098700,5.5430986328125,1.314416766166687,-0.751779317855835,-0.4812345504760742
1772455999356066800,5.55306689453125,0.6392518281936646,-0.7565677165985107,-0.828393816947937
1772455999366080000,5.563080078125,-0.2777273952960968,-0.7086837291717529,-1.414973258972168
1772455999386097700,5.58309765625,-2.2026655673980713,-0.07900865375995636,-2.8179752826690674
1772455999396080600,5.59308056640625,-3.1435868740081787,-0.05746084079146385,-3.421314239501953
1772455999406087700,5.603087646484375,-3.93367338180542,0.07422025501728058,-3.711012601852417
1772455999416062200,5.613062255859375,-4.869806289672852,0.17238251864910126,-3.9264907836914062
1772455999426419500,5.62341943359375,-5.501875400543213,0.5793967843055725,-4.14915132522583
1772455999446692400,5.6436923828125,-5.784391403198242,1.534683346748352,-4.46518611907959
1772455999456079600,5.65307958984375,-5.523423194885254,2.1140801906585693,-4.1874589920043945
1772455999468594400,5.665594482421875,-5.157110691070557,2.655169725418091,-3.5960910320281982
1772455999486127900,5.6831279296875,-4.019864559173584,2.695871114730835,-1.9321208000183105
1772455999496115000,5.693114990234375,-3.292027235031128,2.389413356781006,-1.0630255937576294
1772455999506143000,5.70314306640625,-2.674323320388794,1.821987509727478,-0.28969839215278625
1772455999516096800,5.7130966796875,-1.2665326595306396,1.0534487962722778,0.2537853717803955
1772455999526407700,5.72340771484375,0.08619125932455063,0.2561795711517334,0.9959878921508789
1772455999536092400,5.733092529296875,1.5418659448623657,-0.090979665517807,1.7118542194366455
1772455999546123000,5.743123046875,2.8131868839263916,-0.3519476354122162,2.4420857429504395
1772455999566104600,5.7631044921875,4.661510944366455,-0.21547815203666687,3.952826976776123
1772455999576093000,5.773093017578125,5.137956619262695,-0.3447650372982025,4.527435302734375
1772455999606731800,5.803731689453125,4.876988887786865,-1.9345149993896484,5.406107425689697
1772455999616124400,5.81312451171875,4.455609321594238,-1.7334020137786865,5.073313236236572
1772455999628044500,5.82504443359375,3.818751811981201,-1.5322890281677246,4.584896087646484
1772455999636138000,5.833137939453125,2.9544448852539062,-1.4939818382263184,3.8762125968933105
1772455999646137300,5.843137451171875,2.1045033931732178,-1.2617442607879639,2.9520506858825684
1772455999656115500,5.853115478515625,1.015141487121582,-1.113303780555725,1.8483237028121948
1772455999666160400,5.863160400390625,0.2059013396501541,-0.9696516990661621,0.5506663918495178
1772455999676108300,5.8731083984375,-0.8044517636299133,-0.7589619159698486,-0.7350199222564697
1772455999686110500,5.8831103515625,-1.6304513216018677,-0.4165911078453064,-1.7094600200653076
1772455999716119600,5.91311962890625,-4.326322555541992,0.33279404044151306,-3.914519786834717
1772455999726435800,5.923435791015625,-4.714183330535889,0.31364041566848755,-4.20421838760376
1772455999756102000,5.953101806640625,-5.319916248321533,2.070984363555908,-3.8977603912353516
1772455999766716000,5.9637158203125,-5.094861030578613,3.045424461364746,-3.6990416049957275
1772455999776109000,5.973109130859375,-4.8602294921875,3.3518824577331543,-3.315969467163086
1772455999788618200,5.9856181640625,-4.505887508392334,2.9472622871398926,-2.652775526046753
1772455999816095700,6.013095703125,-2.7222073078155518,0.35434186458587646,-0.31842881441116333
1772455999826449000,6.023448974609375,-1.2880805730819702,-0.5937620401382446,0.35913026332855225
1772455999836101400,6.033101318359375,0.6344634294509888,-1.3982137441635132,1.1348515748977661
1772455999856100900,6.053100830078125,4.01268196105957,-1.45806884765625,2.7485435009002686
1772455999866132700,6.0631328125,5.351040840148926,-1.4197616577148438,3.603273630142212
1772455999876108500,6.073108642578125,6.567295074462891,-1.434126853942871,4.867412090301514
1772455999886120700,6.08312060546875,6.598419666290283,-1.8794482946395874,5.008669853210449
1772455999896096800,6.0930966796875,6.27280855178833,-2.1763293743133545,5.006275653839111
1772455999916084500,6.11308447265625,4.9152960777282715,-2.492363929748535,4.910507678985596
1772455999927028200,6.1240283203125,4.376600742340088,-2.1116859912872314,4.771644115447998
1772455999936095000,6.133094970703125,3.84269380569458,-1.9081788063049316,4.343081951141357
1772455999947774500,6.1447744140625,3.090914487838745,-1.6903064250946045,3.5936968326568604
1772455999956106800,6.153106689453125,2.0183119773864746,-1.745373010635376,2.6886885166168213
1772455999966110700,6.16311083984375,1.1516109704971313,-1.5658079385757446,1.6759412288665771
1772455999976101600,6.1731015625,0.2513911724090576,-1.3215993642807007,0.8451532125473022
1772455999986142500,6.183142578125,-0.6320692300796509,-0.7015010714530945,-0.11252748221158981
1772455999996100400,6.193100341796875,-1.5298948287963867,-0.33518823981285095,-1.0678139925003052
1772456000016177700,6.213177734375,-2.631227731704712,0.7781155705451965,-2.8874073028564453
1772456000026483500,6.2234833984375,-3.1890766620635986,1.1037269830703735,-3.5170822143554688
1772456000036127200,6.233127197265625,-3.6080620288848877,1.0007762908935547,-3.7038300037384033
1772456000046127600,6.243127685546875,-3.6559460163116455,0.7805097699165344,-3.6798880100250244
1772456000056100900,6.253100830078125,-3.7469255924224854,0.8475474119186401,-3.7038300037384033
1772456000066162700,6.26316259765625,-3.3901896476745605,1.1013327836990356,-3.794809579849243
1772456000076120600,6.27312060546875,-3.2824504375457764,1.5873557329177856,-3.7612907886505127
1772456000086737700,6.283737548828125,-2.9089550971984863,1.8962076902389526,-3.3039982318878174
1772456000096115000,6.293114990234375,-2.5546131134033203,2.078166961669922,-2.7222073078155518
1772456000126463500,6.32346337890625,-1.0295066833496094,1.2473790645599365,-0.8882488012313843
1772456000136143400,6.333143310546875,-0.20111294090747833,0.6560112833976746,-0.30885201692581177
1772456000146186800,6.343186767578125,0.7374141216278076,0.2106897532939911,0.26336219906806946
1772456000166178600,6.363178466796875,3.646369218826294,0.2537853717803955,1.9057846069335938
1772456000176173000,6.373173095703125,4.436455726623535,0.15801730751991272,2.5474305152893066
1772456000186224400,6.383224365234375,5.073313236236572,-0.35434186458587646,3.2800562381744385
1772456000196186000,6.39318603515625,5.600037574768066,-0.7805097699165344,3.7828385829925537
1772456000206198300,6.4031982421875,5.310339450836182,-1.2713210582733154,4.01268196105957
1772456000226536200,6.4235361328125,4.584896087646484,-2.5498247146606445,3.9217023849487305
1772456000236189200,6.433189208984375,4.137180328369141,-2.779668092727661,3.691859006881714
1772456000246805800,6.4438056640625,3.536235809326172,-2.4827871322631836,3.0526070594787598
1772456000256186400,6.453186279296875,2.846705913543701,-2.2218191623687744,2.3511061668395996
1772456000267811800,6.464811767578125,1.8267759084701538,-1.7956513166427612,1.2018892765045166
1772456000276198100,6.4731982421875,0.7015010714530945,-1.3910311460494995,0.181959331035614
1772456000286209000,6.483208984375,-0.45489832758903503,-0.8810662031173706,-0.7661445140838623
1772456000296198700,6.49319873046875,-1.359906554222107,-0.4620809257030487,-1.338358759880066
1772456000306269200,6.503269287109375,-2.3080103397369385,0.26575639843940735,-1.9919757843017578
1772456000316235300,6.5132353515625,-3.1316158771514893,0.7398083209991455,-2.628833532333374
1772456000336264200,6.53326416015625,-4.278438568115234,1.7405846118927002,-3.5745432376861572
1772456000346319400,6.5433193359375,-4.568136692047119,2.0470423698425293,-3.598485231399536
1772456000366309400,6.563309326171875,-5.336675643920898,1.8626888990402222,-3.24414324760437
1772456000376295000,6.573294921875,-5.693411827087402,1.8698714971542358,-3.1723172664642334
1772456000386348500,6.5833486328125,-5.96874475479126,1.723825216293335,-2.985569477081299
1772456000396320800,6.59332080078125,-5.884947776794434,1.6519991159439087,-2.894589900970459
1772456000406956800,6.603956787109375,-5.252878665924072,1.5155296325683594,-2.3965959548950195
1772456000416366600,6.61336669921875,-3.825934410095215,1.2665326595306396,-1.1803414821624756
1772456000436754700,6.633754638671875,-2.676717519760132,-0.2777273952960968,-0.09576806426048279
1772456000446419200,6.643419189453125,-1.4460978507995605,-1.3311761617660522,0.3663128614425659
1772456000456416000,6.653416015625,0.2059013396501541,-2.0231003761291504,0.8427590131759644
1772456000466445000,6.663445068359375,1.843535304069519,-1.922544002532959,1.4508862495422363
1772456000476408800,6.673408935546875,3.428496837615967,-1.1827356815338135,2.070984363555908
1772456000486434300,6.683434326171875,4.575319290161133,-0.7876923680305481,2.760514497756958
1772456000506490400,6.703490478515625,5.925649166107178,-1.400607943534851,3.7469255924224854
1772456000516460300,6.713460205078125,6.100425720214844,-1.845929503440857,4.0533833503723145
1772456000536480500,6.73348046875,5.295974254608154,-2.762908697128296,4.223371982574463
1772456000546754300,6.74375439453125,4.434061527252197,-2.7509377002716064,3.8307228088378906
1772456000556500000,6.7535,4.010287761688232,-2.628833532333374,3.550601005554199
1772456000567124500,6.76412451171875,3.294421434402466,-1.9536685943603516,2.937685489654541
1772456000576508700,6.7735087890625,2.473210334777832,-1.5897499322891235,2.477998733520508
1772456000588177400,6.785177490234375,1.4221558570861816,-1.170764684677124,1.5298948287963867
1772456000596531000,6.793531005859375,0.3471592366695404,-0.9217676520347595,0.8164227604866028
1772456000606538200,6.803538330078125,-0.8259995579719543,-0.4692635238170624,-0.0454898327589035
1772456000616519200,6.813519287109375,-1.7693150043487549,-0.047884032130241394,-0.7015010714530945
1772456000626868000,6.823867919921875,-2.6623523235321045,0.5889736413955688,-1.4484920501708984
1772456000666558200,6.86355810546875,-5.57370138168335,1.8531121015548706,-3.818751811981201
1772456000676527000,6.873527099609375,-6.517016887664795,1.8842366933822632,-4.120420932769775
1772456000686550800,6.88355078125,-7.041347026824951,1.3862427473068237,-4.216189384460449
1772456000696551000,6.893551025390625,-6.6630635261535645,1.3982137441635132,-4.228160381317139
1772456000706588200,6.903588134765625,-5.731719017028809,1.6304513216018677,-3.821146011352539
1772456000716556500,6.913556640625,-4.999093055725098,1.922544002532959,-3.2321722507476807
1772456000727493000,6.9244931640625,-4.137180328369141,1.8794482946395874,-2.3942017555236816
1772456000736586200,6.933586181640625,-3.2848446369171143,1.7262194156646729,-1.7717092037200928
1772456000749123800,6.946123779296875,-2.9305028915405273,1.6974890232086182,-1.0678139925003052
1772456000756636400,6.953636474609375,-2.1811177730560303,1.357512354850769,-0.4884171485900879
1772456000766652000,6.96365185546875,-0.8020575642585754,0.5817909836769104,0.038307227194309235
1772456000776640300,6.97364013671875,0.790086567401886,0.3878606855869293,0.49559974670410156
1772456000786677000,6.983677001953125,2.3726539611816406,0.4381389021873474,1.1420341730117798
1772456000796641500,6.9936416015625,3.8355112075805664,0.7445967197418213,1.7956513166427612
1772456000806652000,7.00365185546875,4.972756862640381,0.9313444495201111,2.557007312774658
1772456000816662000,7.013662109375,5.738901615142822,0.828393816947937,3.2369606494903564
1772456000826997500,7.02399755859375,5.904101371765137,0.5386953949928284,3.667917013168335
1772456000836659200,7.0336591796875,6.167463779449463,0.08858546614646912,3.9863457679748535
1772456000856658200,7.053658203125,5.643133640289307,-0.304063618183136,3.995922565460205
1772456000866693400,7.063693359375,4.977545261383057,-0.1867477297782898,3.758896589279175
1772456000876657000,7.073656982421875,4.491522312164307,-0.14365209639072418,3.4572272300720215
1772456000887284500,7.084284423828125,3.8786067962646484,0.06224924325942993,2.698265314102173
1772456000908287700,7.105287841796875,1.8315643072128296,0.33758243918418884,1.5729905366897583
1772456000927016400,7.124016357421875,0.05985504388809204,0.363918662071228,0.608127236366272
1772456000936706800,7.133706787109375,-0.9074024558067322,0.48602294921875,-0.09576806426048279
1772456000946739500,7.143739501953125,-1.8171991109848022,0.6536170840263367,-1.0582371950149536
1772456000966716700,7.163716552734375,-5.906495571136475,0.7445967197418213,-3.804386615753174
1772456000976712400,7.17371240234375,-7.654263019561768,0.4165911078453064,-3.957615375518799
1772456000986760200,7.18376025390625,-8.030152320861816,-0.11971008777618408,-4.010287761688232
1772456000996718000,7.193718017578125,-7.987056732177734,-0.24420857429504395,-4.252102375030518
1772456001006724400,7.203724365234375,-7.371747016906738,0.3280056416988373,-4.173093795776367
1772456001016715300,7.21371533203125,-6.971915245056152,1.4652514457702637,-4.137180328369141
1772456001027045400,7.22404541015625,-6.392518520355225,2.43011474609375,-3.8738183975219727
1772456001036707300,7.233707275390625,-5.861005783081055,3.2154128551483154,-3.361459255218506
1772456001069225500,7.2662255859375,-3.8738183975219727,2.913743495941162,-1.525106430053711
1772456001076740400,7.273740234375,-2.8874073028564453,2.051830768585205,-0.8978256583213806
1772456001086762500,7.283762451171875,-2.183511972427368,1.1061211824417114,-0.24420857429504395
1772456001096763400,7.293763427734375,-1.9512743949890137,0.3280056416988373,0.586579442024231
1772456001106798000,7.303798095703125,-0.4908113479614258,-0.689530074596405,1.1779472827911377
1772456001116763000,7.313762939453125,1.4676456451416016,-1.3886369466781616,1.7573440074920654
1772456001127115000,7.324114990234375,3.3854012489318848,-1.3120225667953491,2.2864625453948975
1772456001136812300,7.333812255859375,4.680664539337158,-0.5674257874488831,2.669534921646118
1772456001146818000,7.343818115234375,5.738901615142822,0.011971008032560349,3.24414324760437
1772456001156772900,7.35377294921875,6.471527099609375,0.10295066982507706,3.804386615753174
1772456001207373300,7.404373291015625,5.169081687927246,-1.0965443849563599,3.4620156288146973
1772456001216791300,7.413791259765625,4.568136692047119,-0.8858546018600464,2.7126305103302
1772456001228776000,7.42577587890625,3.098097085952759,-0.524330198764801,1.2401964664459229
1772456001236831200,7.433831298828125,1.965639591217041,-0.4141969084739685,0.5793967843055725
1772456001246837200,7.443837158203125,0.9361328482627869,-0.2849099934101105,-0.07422025501728058
1772456001256823000,7.453822998046875,-0.1628057211637497,-0.033518824726343155,-0.8882488012313843
1772456001266849800,7.463849853515625,-1.2234370708465576,0.08140286058187485,-1.745373010635376
1772456001276835300,7.47383544921875,-2.3271639347076416,0.3256114423274994,-2.33913516998291
1772456001296847600,7.49384765625,-5.521028995513916,0.8667010068893433,-2.9496564865112305
1772456001306882600,7.503882568359375,-6.8162922859191895,0.9074024558067322,-3.421314239501953
1772456001327184400,7.524184326171875,-7.129932880401611,1.039083480834961,-4.853046894073486
1772456001346952400,7.543952392578125,-7.161057472229004,2.80361008644104,-4.323928356170654
1772456001356920600,7.553920654296875,-7.1921820640563965,3.600879430770874,-3.801992416381836
1772456001367550500,7.564550537109375,-7.103596210479736,3.952826976776123,-3.49314022064209
1772456001376950800,7.57395068359375,-6.722918510437012,3.936067581176758,-3.090914487838745
1772456001396973000,7.59397314453125,-5.013458251953125,2.8826189041137695,-1.8339585065841675
1772456001406986200,7.603986328125,-3.5242648124694824,2.164358377456665,-1.3000515699386597
1772456001417012700,7.6140126953125,-1.1468225717544556,0.44532153010368347,-0.3734954595565796
1772456001427353300,7.624353271484375,-1.4460978507995605,-0.6847416758537292,0.7948749661445618
1772456001437027300,7.63402734375,0.5003881454467773,-1.7908629179000854,1.721431016921997
1772456001447026200,7.644026123046875,2.6815059185028076,-1.946485996246338,2.31758713722229
1772456001457035300,7.65403515625,4.414907932281494,-0.7374141216278076,2.647987127304077
1772456001467079400,7.664079345703125,5.791574001312256,0.22744916379451752,3.3470940589904785
1772456001477046500,7.674046630859375,7.060500621795654,0.42856210470199585,3.883395195007324
1772456001497088500,7.694088623046875,6.430825710296631,-0.8954314589500427,5.161899089813232
1772456001507120000,7.7041201171875,6.011840343475342,-1.436521053314209,4.3622355461120605
1772456001517094700,7.7140947265625,5.336675643920898,-1.50355863571167,3.157952070236206
1772456001528022800,7.725022705078125,4.656722068786621,-1.3024457693099976,1.8483237028121948
1772456001537098500,7.734098388671875,3.8379054069519043,-1.048660397529602,0.9289502501487732
1772456001548700700,7.74570068359375,2.8658595085144043,-0.4596867263317108,0.19393034279346466
1772456001557080600,7.75408056640625,1.8842366933822632,-0.1149216815829277,-0.31124621629714966
1772456001567091000,7.764091064453125,0.6751648783683777,0.3926490843296051,-1.01753568649292
1772456001577077000,7.774076904296875,-0.7709329724311829,0.9074024558067322,-1.800439715385437
1772456001607084300,7.804084228515625,-6.110002517700195,1.1994950771331787,-3.7445313930511475
1772456001617104000,7.814103759765625,-7.448361396789551,0.5554547905921936,-3.9815573692321777
1772456001627446300,7.8244462890625,-7.41484260559082,-0.05506663769483566,-4.168305397033691
1772456001637096200,7.83409619140625,-7.891288757324219,-0.016759412363171577,-4.082113742828369
1772456001647099000,7.844098876953125,-7.824251174926758,0.8451532125473022,-4.146757125854492
1772456001657097500,7.854097412109375,-7.709329605102539,2.008735179901123,-3.936067581176758
1772456001667119600,7.86411962890625,-7.491456985473633,2.8802247047424316,-3.56017804145813
1772456001677074200,7.87407421875,-6.993463039398193,3.5458126068115234,-2.9903578758239746
1772456001687689500,7.884689453125,-6.447585105895996,3.6343982219696045,-2.557007312774658
1772456001717110300,7.9141103515625,-4.110844135284424,2.5067291259765625,-1.139639973640442
1772456001737124000,7.9341240234375,-2.6575639247894287,0.5793967843055725,0.05027823522686958
1772456001747166200,7.944166259765625,-2.0374655723571777,-0.33518823981285095,0.6057330369949341
1772456001757148000,7.95414794921875,1.4197616577148438,-1.5945383310317993,1.6903064250946045
1772456001767167500,7.96416748046875,2.894589900970459,-1.314416766166687,2.276885747909546
1772456001777166600,7.97416650390625,3.97916316986084,-0.6416460275650024,2.765302896499634
1772456001787204400,7.984204345703125,5.049371242523193,-0.2825157940387726,3.4739866256713867
1772456001797166600,7.99416650390625,5.992686748504639,-0.2537853717803955,4.022258758544922
1772456001817175300,8.01417529296875,6.275202751159668,-0.6991068720817566,4.99669885635376
1772456001827517700,8.024517578125,6.021417140960693,-1.139639973640442,5.0469770431518555
1772456001837177900,8.034177734375,5.937620162963867,-1.6615760326385498,4.912901878356934
1772456001847801300,8.04480126953125,5.418078422546387,-2.0422539710998535,4.484339714050293
1772456001857211000,8.0542109375,4.790797710418701,-2.0398597717285156,3.7708675861358643
1772456001868884200,8.06588427734375,3.9624037742614746,-1.7286136150360107,3.093308687210083
1772456001877224400,8.074224365234375,2.715024709701538,-1.403002142906189,2.3989901542663574
1772456001887242500,8.084242431640625,1.5705963373184204,-1.158793568611145,1.5394717454910278
1772456001897240300,8.094240234375,0.3758896589279175,-1.1180921792984009,0.5841852426528931
1772456001907275000,8.10427490234375,-0.7781155705451965,-0.811634361743927,-0.4357447028160095
1772456001927571200,8.1245712890625,-3.134010076522827,-0.2825157940387726,-2.3582887649536133
1772456001937263600,8.134263671875,-4.426878929138184,-0.023942016065120697,-3.043030261993408
1772456001947323600,8.14432373046875,-5.497087001800537,0.090979665517807,-3.4739866256713867
1772456001957294800,8.154294921875,-6.698976516723633,0.047884032130241394,-3.797203779220581
1772456001977320700,8.17432080078125,-7.079654216766357,-0.16998831927776337,-4.273650169372559
1772456001997351400,8.194351318359375,-6.030993938446045,1.278503656387329,-3.7229835987091064
1772456002007989800,8.20498974609375,-5.499481201171875,2.276885747909546,-2.9927520751953125
1772456002030262800,8.2272626953125,-4.043806552886963,3.7469255924224854,-1.501164436340332
1772456002037704000,8.234703857421875,-3.490746021270752,2.8634653091430664,-0.9193734526634216
1772456002047500800,8.244500732421875,-3.3494882583618164,1.7764976024627686,-0.3016694188117981
1772456002057498600,8.25449853515625,-2.760514497756958,0.33039984107017517,0.33758243918418884
1772456002067536100,8.2645361328125,-1.278503656387329,-0.8882488012313843,0.8738836050033569
1772456002077512700,8.2745126953125,0.6584054827690125,-1.4197616577148438,1.5298948287963867
1772456002087538400,8.284538330078124,2.6024973392486572,-1.1444283723831177,2.145204782485962
1772456002097537300,8.294537353515626,4.3406877517700195,-0.48602294921875,2.7940332889556885
1772456002107577900,8.304577880859375,5.674258232116699,0.014365210197865963,3.5649664402008057
1772456002117547000,8.314547119140625,6.5912370681762695,0.21787235140800476,4.23773717880249
1772456002137551400,8.33455126953125,6.560112476348877,-0.6536170840263367,5.25527286529541
1772456002147589000,8.344589111328125,6.167463779449463,-1.3670891523361206,5.317522048950195
1772456002157550600,8.354550537109375,5.688623428344727,-2.1523873805999756,5.293580055236816
1772456002168168000,8.36516796875,5.43723201751709,-2.612074136734009,5.145139217376709
1772456002177557800,8.374557861328125,5.011064052581787,-2.760514497756958,4.9799394607543945
1772456002189191400,8.38619140625,4.580107688903809,-2.2242133617401123,4.666299343109131
1772456002197579800,8.394579833984375,3.907337188720703,-1.5682021379470825,4.20421838760376
1772456002207588900,8.4045888671875,3.2585084438323975,-0.9481038451194763,3.4165258407592773
1772456002217579500,8.41457958984375,2.1380221843719482,-0.6560112833976746,2.655169725418091
1772456002227921200,8.424921142578125,1.2521674633026123,-0.3974374830722809,1.6352397203445435
1772456002257607000,8.45460693359375,-1.4245500564575195,-0.07661445438861847,-2.2649147510528564
1772456002277608700,8.474608642578126,-3.1962592601776123,0.2777273952960968,-3.663128614425659
1772456002297638700,8.494638671875,-6.392518520355225,0.1628057211637497,-4.266467571258545
1772456002307676200,8.50467626953125,-6.320692539215088,0.43335050344467163,-4.553771495819092
1772456002317643300,8.514643310546875,-6.035782337188721,1.0247182846069336,-4.4292731285095215
1772456002328574000,8.525573974609374,-5.602431774139404,1.802833914756775,-3.8570590019226074
1772456002337674800,8.5346748046875,-5.501875400543213,2.5091233253479004,-3.248931646347046
1772456002350190800,8.54719091796875,-5.058948040008545,2.6360161304473877,-2.513911724090576
1772456002367717400,8.56471728515625,-3.5410242080688477,1.6496049165725708,-1.1061211824417114
1772456002377717500,8.574717529296874,-2.63362193107605,1.1300631761550903,-0.4357447028160095
1772456002387754200,8.584754150390625,-2.1284453868865967,0.47165772318840027,0.3758896589279175
1772456002407750000,8.60475,1.173158884048462,-1.4628572463989258,1.6304513216018677
1772456002428130800,8.625130859375,4.920084476470947,-1.1348515748977661,2.983175277709961
1772456002437799700,8.634799560546876,6.138733386993408,-0.4884171485900879,3.5865142345428467
1772456002447822300,8.644822265625,6.687005519866943,-0.24181437492370605,4.1395745277404785
1772456002457824500,8.654824462890625,6.971915245056152,-0.4692635238170624,4.596867084503174
1772456002477856300,8.674856201171876,6.615179061889648,-1.280897855758667,5.003881454467773
1772456002488485600,8.685485595703126,6.380547523498535,-1.5083470344543457,4.776432514190674
1772456002497886500,8.694886474609374,5.995080947875977,-1.6687586307525635,4.455609321594238
1772456002509553200,8.70655322265625,5.439626216888428,-1.601720929145813,3.864241600036621
1772456002517913000,8.7149130859375,4.730942726135254,-1.4317326545715332,3.313575267791748
1772456002528258300,8.72525830078125,3.861847400665283,-1.2497732639312744,2.63362193107605
1772456002537963500,8.734963623046875,2.875436305999756,-1.434126853942871,1.7357962131500244
1772456002548005400,8.74500537109375,1.7932571172714233,-1.357512354850769,0.8236053586006165
1772456002557977900,8.754977783203126,-0.3064578175544739,-1.3862427473068237,-1.2425906658172607
1772456002568004600,8.765004638671876,-1.4891934394836426,-0.8403648138046265,-2.1978771686553955
1772456002598040000,8.7950400390625,-4.853046894073486,0.22026655077934265,-3.1914708614349365
1772456002608061400,8.8050615234375,-5.944802761077881,0.6177040338516235,-3.4404678344726562
1772456002618054100,8.81505419921875,-6.845022678375244,0.507570743560791,-3.8283286094665527
1772456002628411100,8.8254111328125,-6.5050458908081055,0.38307225704193115,-4.127603530883789
1772456002638077700,8.83507763671875,-6.449979305267334,0.9385270476341248,-4.146757125854492
1772456002648708000,8.8457080078125,-6.145915985107422,1.867477297782898,-3.5721490383148193
1772456002658098000,8.855097900390625,-5.839457988739014,2.4372973442077637,-3.0119056701660156
1772456002718188300,8.915188232421874,-1.8722656965255737,0.2059013396501541,0.7374141216278076
1772456002728532500,8.925532470703125,-0.17238251864910126,-0.9528923034667969,1.2497732639312744
1772456002738226400,8.935226318359375,1.5753847360610962,-1.3239935636520386,1.766920804977417
1772456002748274400,8.9452744140625,3.1435868740081787,-0.9145850539207458,2.2457611560821533
1772456002758251500,8.95525146484375,4.505887508392334,-0.3471592366695404,2.765302896499634
1772456002788331800,8.985331787109375,6.174646377563477,-0.629675030708313,3.8953661918640137
1772456002818358300,9.015358154296875,5.863399982452393,-1.8602946996688843,3.5410242080688477
1772456002830287400,9.027287353515625,5.367800235748291,-1.5107412338256836,2.918531894683838
1772456002838408000,9.035407958984376,4.891354084014893,-1.2665326595306396,2.4444799423217773
1772456002848441300,9.04544140625,4.098873138427734,-0.871489405632019,1.843535304069519
1772456002858452700,9.05545263671875,3.31118106842041,-0.8571242094039917,1.359906554222107
1772456002868522200,9.065522216796875,2.1164743900299072,-0.849941611289978,0.7398083209991455
1772456002878508300,9.07550830078125,0.9576807022094727,-1.0606313943862915,0.2322375625371933
1772456002888536300,9.085536376953126,-0.33039984107017517,-0.9983820915222168,-0.4644751250743866
1772456002898543900,9.0955439453125,-1.5155296325683594,-0.5841852426528931,-1.2952631711959839
1772456002918589400,9.11558935546875,-3.687070608139038,0.9864110946655273,-2.5282769203186035
1772456002928927200,9.12592724609375,-4.76924991607666,1.5945383310317993,-2.7509377002716064
1772456002938622500,9.13562255859375,-6.952761650085449,1.4532804489135742,-2.920926094055176
1772456002948667100,9.145667236328125,-7.412448406219482,0.4884171485900879,-3.134010076522827
1772456002958653200,9.155653076171875,-7.675810813903809,0.17238251864910126,-3.5027170181274414
1772456002978686700,9.175686767578124,-6.845022678375244,1.6855180263519287,-3.4787750244140625
1772456002988732700,9.185732666015625,-6.557718276977539,2.5929205417633057,-2.868253707885742
1772456002998713900,9.1957138671875,-6.189011573791504,3.1435868740081787,-2.58813214302063
1772456003038772000,9.23577197265625,-2.4875755310058594,1.4197616577148438,-0.45010992884635925
1772456003078827500,9.27582763671875,4.424484729766846,-0.6967126727104187,2.2170307636260986
1772456003088863200,9.28586328125,5.853823184967041,-0.16759411990642548,2.779668092727661
1772456003118898000,9.31589794921875,7.158663272857666,-1.0414776802062988,3.7397429943084717
1772456003148984600,9.345984619140625,5.954379558563232,-1.7046716213226318,3.268085241317749
1772456003158994400,9.355994384765625,5.504269599914551,-1.6112977266311646,2.9233202934265137
1772456003169044700,9.366044677734376,4.680664539337158,-1.2832920551300049,2.52109432220459
1772456003189065500,9.3860654296875,2.4684219360351562,-0.7015010714530945,1.335964560508728
1772456003209127000,9.406126953125,0.08619125932455063,-0.1388636976480484,0.37828385829925537
1772456003249263000,9.44626318359375,-4.520252704620361,0.7709329724311829,-1.9800047874450684
1772456003259238000,9.45623779296875,-6.203376770019531,0.5339069962501526,-2.494758129119873
1772456003269284900,9.466284912109375,-7.666234016418457,0.43095630407333374,-2.7700912952423096
1772456003279270400,9.4762705078125,-8.099584579467773,0.10295066982507706,-3.3231520652770996
1772456003289343700,9.48634375,-7.496245384216309,0.17238251864910126,-3.622427225112915
1772456003299327700,9.49632763671875,-7.390900611877441,1.1420341730117798,-3.6128504276275635
1772456003309370400,9.506370361328125,-6.7923502922058105,1.845929503440857,-3.268085241317749
1772456003339427800,9.536427734375,-5.413290023803711,3.49314022064209,-2.03507137298584
1772456003369523000,9.56652294921875,-1.9393033981323242,1.6663644313812256,-0.4572925269603729
1772456003389537800,9.586537841796876,-1.113303780555725,0.5315127968788147,0.6488286852836609
1772456003399526100,9.596526123046875,0.545877993106842,-0.524330198764801,1.0558429956436157
1772456003409603600,9.606603515625,2.7461493015289307,-0.8236053586006165,1.482010841369629
1772456003419581400,9.61658154296875,4.4723687171936035,-0.10534487664699554,1.8363527059555054
1772456003429942800,9.62694287109375,5.592854976654053,0.6536170840263367,2.3798365592956543
1772456003439618300,9.636618408203125,6.564900875091553,1.2473790645599365,2.9328970909118652
1772456003469729500,9.6667294921875,6.473921298980713,0.7230489253997803,3.56017804145813
1772456003479716600,9.676716552734375,6.461950302124023,0.08619125932455063,3.3925838470458984
1772456003489788000,9.686787841796875,5.990292549133301,-0.2825157940387726,2.9496564865112305
1772456003499761700,9.69676171875,5.497087001800537,-0.5051765441894531,2.346317768096924
1772456003509802500,9.706802490234375,4.9152960777282715,-0.5578489899635315,1.8507179021835327
1772456003519785200,9.71678515625,4.220977783203125,-0.646434485912323,1.3982137441635132
1772456003530156800,9.72715673828125,3.134010076522827,-0.5267243981361389,0.9026140570640564
1772456003569941000,9.76694091796875,-0.7733271718025208,0.6320692300796509,-0.9768342971801758
1772456003579917000,9.7769169921875,-1.7142484188079834,0.9313444495201111,-1.3646949529647827
1772456003589966300,9.78696630859375,-4.675876140594482,1.6615760326385498,-1.9608511924743652
1772456003610029000,9.807029052734375,-7.86734676361084,0.7374141216278076,-2.7246015071868896
1772456003620035000,9.81703515625,-7.934384346008301,0.0071826050989329815,-3.339911460876465
1772456003630395600,9.827395751953125,-7.436390399932861,0.1604115068912506,-3.5482068061828613
1772456003640096800,9.8370966796875,-7.441178798675537,1.0965443849563599,-3.1914708614349365
1772456003670178800,9.8671787109375,-6.682217121124268,3.043030261993408,-2.6001031398773193
1772456003690248200,9.887248291015625,-5.17626428604126,2.4396915435791016,-1.7717092037200928
1772456003700237600,9.897237548828125,-4.003105163574219,1.98958158493042,-1.2282254695892334
1772456003710275600,9.907275634765625,-2.3319525718688965,1.2880805730819702,-0.7445967197418213
1772456003740349700,9.937349609375,0.23942017555236816,-0.8858546018600464,1.091755986213684
1772456003750390500,9.947390625,2.1787235736846924,-1.3503297567367554,1.4915876388549805
1772456003770462200,9.967462158203125,5.147533416748047,0.2513911724090576,2.33913516998291
1772456003780463400,9.97746337890625,6.13633918762207,0.4884171485900879,2.9448680877685547
1772456003790494200,9.987494140625,6.27280855178833,0.22744916379451752,3.4356794357299805
1772456003800499000,9.9974990234375,6.426037311553955,-0.3687070608139038,3.7924153804779053
1772456003810548000,10.0075478515625,6.5481414794921875,-1.235408067703247,3.885789394378662
1772456003820528400,10.0175283203125,6.675034523010254,-1.8100165128707886,3.8283286094665527
1772456003830869800,10.027869873046875,6.507440090179443,-1.9704279899597168,3.584120035171509
1772456003840565000,10.03756494140625,6.282385349273682,-1.5322890281677246,3.1651346683502197
1772456003850616300,10.0476162109375,5.018246650695801,-0.8092401623725891,2.097320795059204
1772456003860603600,10.057603759765625,4.039018154144287,-0.5746083855628967,1.6136919260025024
1772456003880636700,10.07763671875,1.9033904075622559,-0.035913024097681046,0.8092401623725891
1772456003890684000,10.087683837890625,0.9241618514060974,-0.090979665517807,0.21547815203666687
1772456003900667100,10.097667236328125,-0.11013327538967133,0.11252748221158981,-0.5674257874488831
1772456003910695200,10.107695068359375,-1.213860273361206,0.33518823981285095,-1.3215993642807007
1772456003920690000,10.11768994140625,-2.8203697204589844,0.6272808313369751,-1.9081788063049316
1772456003931055400,10.128055419921875,-5.224148273468018,0.7805097699165344,-2.274491548538208
1772456003940729900,10.137729736328126,-7.979874134063721,0.4405331015586853,-2.5115175247192383
1772456003950751500,10.14775146484375,-7.975085735321045,-0.7733271718025208,-3.157952070236206
1772456003960744700,10.15774462890625,-7.726089000701904,-1.173158884048462,-3.734954595565796
1772456003980786200,10.1777861328125,-7.659051418304443,1.158793568611145,-3.117250680923462
1772456003990807000,10.18780712890625,-7.412448406219482,2.145204782485962,-2.7006595134735107
1772456004000798000,10.1977978515625,-7.113173484802246,2.741360902786255,-2.583343744277954
1772456004010841600,10.207841552734376,-6.730101108551025,3.0573954582214355,-2.3343467712402344
1772456004020857300,10.217857421875,-5.889736175537109,3.138798475265503,-1.9273324012756348
1772456004031190800,10.228190673828125,-5.193023681640625,2.937685489654541,-1.4508862495422363
1772456004040871200,10.23787109375,-4.292803764343262,2.7030537128448486,-0.8954314589500427
1772456004050917000,10.247917236328124,-3.5410242080688477,2.229001760482788,-0.44532153010368347
1772456004060890400,10.257890380859376,-1.4963760375976562,1.2018892765045166,-0.21308395266532898
1772456004070914300,10.267914306640625,-0.8930372595787048,0.09816227108240128,0.44771572947502136
1772456004090948400,10.2879482421875,1.1300631761550903,-1.2880805730819702,1.3862427473068237
1772456004100922600,10.297922607421874,3.1890766620635986,-1.5394717454910278,1.6376339197158813
1772456004110939400,10.307939453125,6.265625953674316,0.10295066982507706,2.1547815799713135
1772456004120932400,10.317932373046874,7.091625213623047,0.5147533416748047,2.561795711517334
1772456004131307500,10.3283076171875,7.759607791900635,0.24899697303771973,2.9017724990844727
1772456004140981500,10.3379814453125,8.001421928405762,-0.19632454216480255,3.313575267791748
1772456004150982100,10.347982177734375,7.615955829620361,-0.6943184733390808,3.2585084438323975
1772456004160972000,10.357971923828124,7.216124057769775,-1.170764684677124,2.9017724990844727
1772456004171029500,10.368029541015625,6.440402507781982,-1.5179238319396973,2.4660277366638184
1772456004201040600,10.39804052734375,3.136404275894165,-0.6751648783683777,0.8571242094039917
1772456004211096800,10.408096923828126,1.7549498081207275,-0.4165911078453064,0.43095630407333374
1772456004221079800,10.418079833984375,0.6871358752250671,-0.16759411990642548,0.1628057211637497
1772456004231407900,10.428407958984375,-0.3758896589279175,0.21787235140800476,-0.19393034279346466
1772456004241086200,10.438086181640625,-1.3048399686813354,0.5003881454467773,-0.6033388376235962
1772456004251134700,10.448134765625,-2.518700122833252,0.8475474119186401,-0.9768342971801758
1772456004261122800,10.458122802734374,-4.280832767486572,1.1037269830703735,-1.256955862045288
1772456004271141600,10.4681416015625,-6.449979305267334,1.0773907899856567,-1.3646949529647827
1772456004281155300,10.4781552734375,-7.654263019561768,0.2944868206977844,-1.9105730056762695
1772456004311192600,10.508192626953125,-7.953537940979004,0.9289502501487732,-3.1244332790374756
1772456004321171700,10.518171630859374,-8.418013572692871,2.0207061767578125,-2.96162748336792
1772456004332138800,10.529138671875,-8.429984092712402,2.806004285812378,-2.6671407222747803
1772456004341221400,10.538221435546875,-8.322244644165039,3.2800562381744385,-2.628833532333374
1772456004352875000,10.549875,-7.872135162353516,3.5242648124694824,-2.499546527862549
1772456004361225200,10.55822509765625,-7.0317702293396,3.318363666534424,-2.0877439975738525
1772456004371253500,10.56825341796875,-5.434837818145752,2.27209734916687,-1.0797849893569946
1772456004381208800,10.578208740234375,-4.333505153656006,1.6280571222305298,-0.6129156351089478
1772456004391228700,10.588228759765625,-2.940079689025879,0.8690952062606812,-0.28969839215278625
1772456004421230800,10.61823095703125,0.7733271718025208,-1.8124107122421265,1.6735470294952393
1772456004431574000,10.628573974609376,3.2752678394317627,-2.31758713722229,2.011129379272461
1772456004441247200,10.638247314453125,5.094861030578613,-1.192312479019165,2.164358377456665
1772456004451280400,10.6482802734375,6.512228488922119,0.19153612852096558,2.252943754196167
1772456004461237500,10.658237548828126,7.4316020011901855,0.8140285611152649,2.5474305152893066
1772456004471263200,10.66826318359375,7.694964408874512,0.7086837291717529,2.7748796939849854
1772456004481230000,10.67822998046875,7.8745293617248535,0.2059013396501541,2.9664158821105957
1772456004491895000,10.68889501953125,7.041347026824951,-0.05506663769483566,2.849100112915039
1772456004501584000,10.698583984375,6.75883150100708,-0.4141969084739685,2.4181437492370605
1772456004521284000,10.7182841796875,5.293580055236816,-1.139639973640442,1.5322890281677246
1772456004531643000,10.728642822265625,4.213795185089111,-1.0007762908935547,1.1085153818130493
1772456004541284400,10.738284423828125,3.3207578659057617,-0.9145850539207458,0.8068459630012512
1772456004551329500,10.74832958984375,2.0015525817871094,-0.6105214357376099,0.4357447028160095
1772456004561301500,10.758301513671874,0.9552865028381348,-0.5410895943641663,0.13407529890537262
1772456004571360300,10.7683603515625,-0.2059013396501541,-0.5291185975074768,-0.3447650372982025
1772456004581314600,10.778314453125,-1.194706678390503,-0.524330198764801,-0.8044517636299133
1772456004591339500,10.788339599609374,-2.6192567348480225,-0.3974374830722809,-1.237802267074585
1772456004601306600,10.798306640625,-4.6950297355651855,-0.4429273009300232,-1.335964560508728
1772456004611346400,10.808346435546875,-7.419631004333496,-0.45010992884635925,-1.460463047027588
1772456004631628500,10.828628662109375,-8.975862503051758,-1.4772224426269531,-2.7102363109588623
1772456004641289000,10.8382890625,-8.901641845703125,-0.3519476354122162,-2.7246015071868896
1772456004651959000,10.848958984375,-8.59997272491455,0.6105214357376099,-2.140416383743286
1772456004661305000,10.85830517578125,-8.523358345031738,1.403002142906189,-1.821987509727478
1772456004672967200,10.86996728515625,-7.90086555480957,2.10210919380188,-1.5466543436050415
1772456004681302800,10.878302734375,-7.314286231994629,2.738966703414917,-1.3886369466781616
1772456004691349800,10.888349853515624,-6.378153324127197,3.1004912853240967,-0.9385270476341248
1772456004701321200,10.8983212890625,-5.264849662780762,2.873042106628418,-0.2944868206977844
1772456004711335200,10.908335205078124,-3.751713991165161,2.315192937850952,0.28969839215278625
1772456004741278200,10.9382783203125,0.002394201699644327,-1.1109095811843872,2.2409727573394775
1772456004751306500,10.948306396484375,2.5929205417633057,-2.2457611560821533,2.52109432220459
1772456004761269200,10.958269287109376,5.2480902671813965,-1.965639591217041,2.9065608978271484
1772456004771311900,10.968311767578125,6.943184852600098,-0.363918662071228,2.980781078338623
1772456004781258200,10.97825830078125,8.564059257507324,0.6584054827690125,3.3303346633911133
1772456004791293200,10.988293212890625,9.059659004211426,0.9624691009521484,3.6152446269989014
1772456004801256400,10.99825634765625,9.064447402954102,0.8595184087753296,4.031835556030273
1772456004811910400,11.008910400390626,8.506598472595215,0.26575639843940735,4.02465295791626
1772456004841308700,11.03830859375,7.110779285430908,-0.9169792532920837,2.5977089405059814
1772456004851346200,11.04834619140625,6.232107162475586,-0.8571242094039917,1.9991583824157715
1772456004861294600,11.058294677734375,5.432443618774414,-0.9959878921508789,1.6927006244659424
1772456004871316500,11.06831640625,4.065354347229004,-1.1563993692398071,1.460463047027588
1772456004881284000,11.0782841796875,2.229001760482788,-0.9744400978088379,0.912190854549408
1772456004891324400,11.088324462890625,0.44532153010368347,-0.8619126081466675,0.3902548849582672
1772456004901264000,11.098263916015625,-1.414973258972168,-0.6177040338516235,0.181959331035614
1772456004911282000,11.108281982421875,-3.2776620388031006,-0.18914192914962769,-0.21308395266532898
1772456004921245400,11.118245361328125,-8.889671325683594,-0.4668693244457245,-1.314416766166687
1772456004951286300,11.148286376953125,-10.433931350708008,-2.0446481704711914,-2.58813214302063
1772456004961251800,11.158251953125,-10.180145263671875,-0.8475474119186401,-2.33913516998291
1772456004971905300,11.1689052734375,-8.832210540771484,0.6991068720817566,-2.013523578643799
1772456004981241300,11.178241455078124,-7.970297336578369,1.644816517829895,-1.8914192914962769
1772456004992866000,11.189865966796875,-6.8043212890625,1.8602946996688843,-1.6855180263519287
1772456005001252000,11.198252197265624,-5.679046630859375,1.7262194156646729,-1.37906014919281
1772456005011285200,11.20828515625,-4.316745758056641,1.3311761617660522,-0.8427590131759644
1772456005021232600,11.218232666015625,-3.1196448802948,0.7469909191131592,-0.33279404044151306
1772456005041234000,11.23823388671875,-1.3910311460494995,-0.5363011956214905,0.8379706144332886
1772456005051269000,11.24826904296875,-0.11252748221158981,-1.237802267074585,1.3120225667953491
1772456005061223400,11.258223388671874,1.9823989868164062,-1.9536685943603516,1.6065093278884888
1772456005071250700,11.268250732421874,4.125209331512451,-1.7956513166427612,1.7477672100067139
1772456005081304800,11.278304931640625,6.088454723358154,-0.8978256583213806,1.922544002532959
1772456005091279400,11.288279296875,7.3669586181640625,0.3280056416988373,2.078166961669922
1772456005101231400,11.2982314453125,8.183381080627441,1.015141487121582,2.3942017555236816
1772456005111259600,11.308259765625,8.152256965637207,0.9217676520347595,2.7557260990142822
1772456005121240000,11.318239990234375,8.300697326660156,0.45250412821769714,3.1004912853240967
1772456005132220200,11.32922021484375,7.599195957183838,0.29209262132644653,2.896984100341797
1772456005153794800,11.350794921875,7.043741226196289,-0.33039984107017517,2.6360161304473877
1772456005161297400,11.35829736328125,6.476315498352051,-0.2753331959247589,2.518700122833252
1772456005171344000,11.36834375,5.710171222686768,-0.17717093229293823,2.1332337856292725
1772456005181294300,11.37829443359375,4.888959884643555,-0.09816227108240128,1.7764976024627686
1772456005191325000,11.388324951171874,2.535459518432617,-0.031124621629714966,1.0797849893569946
1772456005201304800,11.398304931640626,1.4724340438842773,-0.20350714027881622,0.8020575642585754
1772456005211360500,11.408360595703124,0.3471592366695404,-0.4118026793003082,0.6033388376235962
1772456005221344300,11.41834423828125,-0.8906430602073669,-0.7493851184844971,0.3902548849582672
1772456005231696600,11.428696533203125,-1.9273324012756348,-0.7948749661445618,0.21308395266532898
1772456005241368800,11.438368896484375,-3.6104562282562256,-0.8331822156906128,0.12210428714752197
1772456005261392100,11.45839208984375,-8.006210327148438,-1.3335703611373901,-0.44771572947502136
1772456005271424800,11.4684248046875,-8.092401504516602,-2.013523578643799,-1.0630255937576294
1772456005281416700,11.478416748046875,-8.724471092224121,-1.6855180263519287,-1.987187385559082
1772456005292073000,11.489072998046876,-8.099584579467773,-0.3687070608139038,-2.3726539611816406
1772456005301426200,11.49842626953125,-7.4770917892456055,1.0031704902648926,-2.47560453414917
1772456005313096400,11.510096435546876,-6.703764915466309,2.1475989818573,-2.2864625453948975
1772456005321479200,11.518479248046875,-6.538564682006836,2.6192567348480225,-2.1930887699127197
1772456005331818000,11.52881787109375,-5.621585369110107,2.7222073078155518,-1.9728221893310547
1772456005341490200,11.538490234375,-5.322310447692871,2.5689783096313477,-1.824381709098816
1772456005361516000,11.55851611328125,-3.1675288677215576,0.9648633003234863,-1.015141487121582
1772456005371595300,11.56859521484375,-1.4269442558288574,-0.44532153010368347,-0.4118026793003082
1772456005381562600,11.578562744140624,-0.2082955539226532,-1.5753847360610962,0.035913024097681046
1772456005391592400,11.588592529296875,0.12928688526153564,-1.7956513166427612,0.5219359993934631
1772456005401581800,11.598581787109374,1.9967641830444336,-2.7102363109588623,1.2665326595306396
1772456005411626500,11.60862646484375,4.489128112792969,-2.765302896499634,1.5298948287963867
1772456005421594400,11.618594482421875,6.9024834632873535,-1.2258312702178955,1.5705963373184204
1772456005431935500,11.628935546875,8.815450668334961,0.3758896589279175,1.7262194156646729
1772456005441611500,11.638611572265624,10.307038307189941,1.434126853942871,2.0207061767578125
1772456005452277000,11.649277099609375,9.916783332824707,1.7693150043487549,3.114856481552124
1772456005474168800,11.6711689453125,7.994239330291748,0.14365209639072418,2.499546527862549
1772456005481688800,11.678688720703125,6.959944248199463,0.10773907601833344,2.006340980529785
1772456005491733500,11.6887333984375,5.568912982940674,0.05506663769483566,1.6496049165725708
1772456005501688800,11.698688720703124,4.60165548324585,0.08140286058187485,1.314416766166687
1772456005511720400,11.708720458984375,3.2585084438323975,0,0.9050082564353943
1772456005521702400,11.718702392578125,2.4133553504943848,0.05027823522686958,0.6105214357376099
1772456005532053500,11.729053466796875,1.4413094520568848,0.11252748221158981,0.15322890877723694
1772456005541703000,11.738702880859375,0.730231523513794,0.014365210197865963,-0.22744916379451752
1772456005551730700,11.748730712890625,-0.7948749661445618,0.031124621629714966,-0.43335050344467163
1772456005561707500,11.75870751953125,-2.7126305103302,0.019153613597154617,-0.5650315880775452
1772456005581723100,11.77872314453125,-7.771578788757324,-0.7948749661445618,-1.194706678390503
1772456005591760000,11.788759765625,-8.868123054504395,-2.1068975925445557,-1.4891934394836426
1772456005601740300,11.798740234375,-9.222464561462402,-2.4899697303771973,-2.1930887699127197
1772456005612426000,11.809426025390625,-8.939949035644531,-1.8626888990402222,-2.4157495498657227
1772456005621795300,11.81879541015625,-8.96389102935791,-0.7374141216278076,-2.516305923461914
1772456005633718000,11.830718017578125,-8.588001251220703,0.3974374830722809,-2.293645143508911
1772456005641829400,11.838829345703125,-8.418013572692871,1.522712230682373,-2.2218191623687744
1772456005651877000,11.848877197265624,-7.965508937835693,2.255337953567505,-2.3750481605529785
1772456005661843200,11.85884326171875,-7.354987621307373,2.717418909072876,-2.2697031497955322
1772456005671871000,11.86887109375,-6.528987884521484,2.449268341064453,-1.9560627937316895
1772456005691896000,11.88889599609375,-3.3734302520751953,0.8068459630012512,-0.7805097699165344
1772456005701855000,11.89885498046875,-1.7334020137786865,-0.0933738648891449,-0.16998831927776337
1772456005711890700,11.908890625,-1.4077905416488647,-0.5530605912208557,0.5051765441894531
1772456005721868000,11.918867919921874,2.073378562927246,-2.121262788772583,1.7932571172714233
1772456005732225000,11.92922509765625,4.93923807144165,-1.2737152576446533,1.920149803161621
1772456005741882000,11.938882080078125,7.378929615020752,0.6584054827690125,2.013523578643799
1772456005751922000,11.948921875,8.75080680847168,2.1068975925445557,2.449268341064453
1772456005761915100,11.9589150390625,9.296685218811035,2.518700122833252,3.0166940689086914
1772456005772580900,11.969580810546875,8.956708908081055,2.097320795059204,3.354276657104492
1772456005794460000,11.9914599609375,7.402871608734131,0.7805097699165344,3.270479440689087
1772456005801958700,11.998958740234375,6.873753070831299,0.12689268589019775,2.827552318572998
1772456005812053500,12.009053466796875,5.784391403198242,-0.12449848651885986,2.319981336593628
1772456005821980000,12.01897998046875,5.032611846923828,-0.4405331015586853,1.7956513166427612
1772456005832326700,12.02932666015625,3.5960910320281982,-0.45250412821769714,1.216254472732544
1772456005841996500,12.03899658203125,2.6431987285614014,-0.689530074596405,0.8930372595787048
1772456005852065800,12.049065673828125,1.436521053314209,-0.5195417404174805,0.2322375625371933
1772456005862018000,12.05901806640625,0.6057330369949341,-0.24181437492370605,-0.31364041566848755
1772456005872027100,12.069027099609375,-0.2992752194404602,-0.1388636976480484,-0.7398083209991455
1772456005882008300,12.07900830078125,-1.2042834758758545,-0.16998831927776337,-0.790086567401886
1772456005902026000,12.09902587890625,-4.5825018882751465,-0.09816227108240128,-0.9528923034667969
1772456005912035800,12.109035888671874,-7.47230339050293,-0.17238251864910126,-1.1324573755264282
1772456005922023400,12.1190234375,-9.006986618041992,-1.170764684677124,-1.6855180263519287
1772456005932973000,12.12997314453125,-9.100360870361328,-1.5682021379470825,-2.2194249629974365
1772456005942021000,12.139021240234374,-9.361329078674316,-1.335964560508728,-2.7317841053009033
1772456005953665300,12.150665283203125,-8.544905662536621,-0.5291185975074768,-2.5522189140319824
1772456005962013200,12.15901318359375,-8.236053466796875,0.4165911078453064,-2.360682964324951
1772456005972032500,12.169032470703126,-7.527369976043701,1.2282254695892334,-2.0661959648132324
1772456005981991200,12.1789912109375,-7.359776020050049,2.0685901641845703,-1.9177556037902832
1772456006011994600,12.20899462890625,-3.734954595565796,1.824381709098816,-0.7613561153411865
1772456006021982700,12.218982666015625,-2.0231003761291504,0.9457096457481384,-0.18914192914962769
1772456006032299000,12.229299072265626,-1.170764684677124,0.2059013396501541,0.45489832758903503
1772456006041969000,12.238968994140626,-0.6943184733390808,-0.3687070608139038,1.0845733880996704
1772456006052000500,12.24900048828125,1.886630892753601,-1.7717092037200928,1.5658079385757446
1772456006061964000,12.258964111328124,4.546588897705078,-2.0590133666992188,1.9967641830444336
1772456006071972400,12.268972412109376,6.636727333068848,-0.7350199222564697,2.2840683460235596
1772456006081944000,12.278944091796875,8.470685958862305,0.5099649429321289,2.7748796939849854
1772456006092588300,12.28958837890625,9.222464561462402,1.0749965906143188,3.050212860107422
1772456006114490000,12.311489990234374,8.69095230102539,1.1971008777618408,3.5865142345428467
1772456006121996300,12.318996337890624,8.039729118347168,0.8930372595787048,3.60566782951355
1772456006132337700,12.329337646484374,7.184999465942383,0.5793967843055725,3.2848446369171143
1772456006142034200,12.3390341796875,6.675034523010254,0.17956513166427612,2.9472622871398926
1772456006152043500,12.34904345703125,5.9974751472473145,0.12928688526153564,2.4205379486083984
1772456006162041900,12.359041748046875,5.044582843780518,0.40462008118629456,1.9823989868164062
1772456006172064000,12.36906396484375,4.02465295791626,0.33518823981285095,1.501164436340332
1772456006182036200,12.3790361328125,2.896984100341797,0.2753331959247589,1.1109095811843872
1772456006192053000,12.389052978515625,1.5322890281677246,0.040701430290937424,0.6703764796257019
1772456006202042600,12.399042724609375,0.5123591423034668,-0.22026655077934265,0.2585737705230713
1772456006222024700,12.419024658203124,-1.8052281141281128,-0.5602431893348694,-0.5195417404174805
1772456006232341200,12.42934130859375,-3.2824504375457764,-0.4381389021873474,-0.7733271718025208
1772456006242023400,12.4390234375,-5.114014625549316,-0.6105214357376099,-1.0558429956436157
1772456006252655000,12.449655029296874,-7.383718013763428,-0.7661445140838623,-1.3527239561080933
1772456006262020000,12.45902001953125,-9.2033109664917,-1.9177556037902832,-2.5498247146606445
1772456006273626600,12.470626708984375,-9.346963882446289,-1.558625340461731,-2.9257144927978516
1772456006282028300,12.4790283203125,-9.41400146484375,-0.933738648891449,-3.069366693496704
1772456006292069000,12.489069091796875,-8.667010307312012,-0.0694318488240242,-2.911349296569824
1772456006302024000,12.49902392578125,-8.250418663024902,1.01753568649292,-2.7916390895843506
1772456006312026400,12.5090263671875,-7.436390399932861,2.049436569213867,-2.497152328491211
1772456006332342500,12.529342529296875,-5.5760955810546875,2.8778305053710938,-2.032677173614502
1772456006342023700,12.539023681640625,-4.580107688903809,2.5977089405059814,-1.5897499322891235
1772456006352025600,12.549025634765625,-3.0765492916107178,1.6879122257232666,-1.1324573755264282
1772456006362009300,12.55900927734375,-2.1571757793426514,1.0199298858642578,-0.5339069962501526
1772456006372027000,12.56902685546875,-1.9728221893310547,0.3232172429561615,0.17477671802043915
1772456006381997000,12.5789970703125,-0.1388636976480484,-0.7565677165985107,0.6799532771110535
1772456006391995100,12.5889951171875,2.367865562438965,-1.721431016921997,1.2473790645599365
1772456006401996800,12.598996826171875,4.800374507904053,-1.0821791887283325,1.6879122257232666
1772456006412661000,12.609660888671876,6.512228488922119,0.7015010714530945,2.126051187515259
1772456006442057500,12.639057373046874,8.611943244934082,2.250549554824829,3.4763808250427246
1772456006452079900,12.649079833984375,8.367734909057617,1.723825216293335,3.6391866207122803
1772456006462037200,12.659037353515625,7.845798969268799,1.1013327836990356,3.667917013168335
1772456006472038100,12.6690380859375,7.156269073486328,0.304063618183136,3.3279404640197754
1772456006482040600,12.67904052734375,6.6391215324401855,-0.28969839215278625,2.918531894683838
1772456006492057600,12.6890576171875,5.784391403198242,-0.4213795065879822,2.389413356781006
1772456006502022700,12.699022705078125,5.1595048904418945,-0.3687070608139038,1.8124107122421265
1772456006512022000,12.70902197265625,4.027047157287598,-0.3064578175544739,1.1994950771331787
1772456006522009900,12.719009765625,3.0526070594787598,-0.043095629662275314,0.9169792532920837
1772456006562063000,12.75906298828125,-2.5498247146606445,-0.019153613597154617,-1.2617442607879639
1772456006572688400,12.7696884765625,-3.9671921730041504,-0.272938996553421,-1.41257905960083
1772456006582056700,12.779056640625,-5.5329999923706055,-0.6823474764823914,-1.5203180313110352
1772456006593700000,12.7907001953125,-7.12035608291626,-1.4077905416488647,-1.4460978507995605
1772456006602060000,12.79906005859375,-8.056488990783691,-2.6216509342193604,-1.843535304069519
1772456006612078300,12.809078369140625,-7.728483200073242,-2.779668092727661,-2.3942017555236816
1772456006622035200,12.81903515625,-8.075642585754395,-1.9847931861877441,-2.535459518432617
1772456006652050000,12.8490498046875,-7.094019412994385,1.0055646896362305,-2.0614075660705566
1772456006662017500,12.859017578125,-6.904877662658691,1.5873557329177856,-1.9321208000183105
1772456006672033800,12.86903369140625,-6.466738700866699,1.9608511924743652,-1.5682021379470825
1772456006682040300,12.879040283203125,-5.889736175537109,2.0685901641845703,-1.3646949529647827
1772456006692061000,12.88906103515625,-5.298368453979492,1.9584569931030273,-0.9864110946655273
1772456006702026500,12.899026611328125,-4.742913722991943,1.8842366933822632,-0.7182605266571045
1772456006712031200,12.90903125,-3.7684733867645264,1.381454348564148,-0.42616790533065796
1772456006722040600,12.91904052734375,-2.6168625354766846,0.6416460275650024,-0.11971008777618408
1772456006732987400,12.9299873046875,-2.032677173614502,0.0694318488240242,0.42616790533065796
1772456006754544400,12.95154443359375,0.667982280254364,-1.946485996246338,1.6903064250946045
1772456006762068200,12.959068115234375,3.026270866394043,-2.2457611560821533,2.1787235736846924
1772456006772109800,12.96910986328125,5.506663799285889,-0.8523358106613159,2.5043349266052246
1772456006782073300,12.9790732421875,7.309497833251953,0.8427590131759644,2.7964274883270264
1772456006792082200,12.989082275390626,8.736441612243652,1.922544002532959,3.112462282180786
1772456006802062300,12.999062255859375,9.938331604003906,1.9153614044189453,3.7277719974517822
1772456006812086000,13.0090859375,9.308655738830566,1.659181833267212,3.6367924213409424
1772456006822078200,13.019078125,8.396465301513672,1.2689268589019775,3.3686418533325195
1772456006832396500,13.029396484375,7.489062786102295,0.9265560507774353,2.8634653091430664
1772456006842062600,13.0390625,6.57926607131958,0.871489405632019,2.513911724090576
1772456006872055800,13.069055908203126,3.5721490383148193,0.7805097699165344,0.871489405632019
1772456006882042000,13.0790419921875,2.343923568725586,0.9241618514060974,0.44771572947502136
1772456006892693000,13.08969287109375,1.1683704853057861,0.950498104095459,0.26575639843940735
1772456006902041900,13.099041748046876,0.06464344263076782,1.0414776802062988,-0.038307227194309235
1772456006913647900,13.11064794921875,-0.586579442024231,1.0989385843276978,-0.1173158809542656
1772456006922052400,13.11905224609375,-1.843535304069519,0.9768342971801758,-0.24420857429504395
1772456006932378000,13.129378173828124,-3.641580820083618,0.5291185975074768,-0.395043283700943
1772456006942027300,13.13902734375,-5.894524574279785,-0.22505496442317963,-0.5506663918495178
1772456006952027600,13.149027587890625,-7.208941459655762,-0.6871358752250671,-0.9433154463768005
1772456006972062700,13.169062744140625,-7.939172744750977,-0.9528923034667969,-1.6927006244659424
1772456006982026500,13.179026611328124,-7.654263019561768,-0.20111294090747833,-2.126051187515259
1772456006992030000,13.189030029296875,-7.422025203704834,0.4405331015586853,-2.231395959854126
1772456007002003500,13.19900341796875,-7.405265808105469,0.993593692779541,-2.4229321479797363
1772456007012029400,13.209029541015624,-6.641515731811523,1.4173674583435059,-2.4899697303771973
1772456007021981400,13.2189814453125,-6.27280855178833,2.054224967956543,-2.4612393379211426
1772456007032291600,13.22929150390625,-5.638344764709473,2.5019407272338867,-2.3343467712402344
1772456007041952300,13.2389521484375,-4.831499099731445,2.7964274883270264,-2.054224967956543
1772456007052581000,13.2495810546875,-3.5194764137268066,2.47560453414917,-1.7310078144073486
1772456007081997000,13.2789970703125,0.6919242739677429,0.07422025501728058,0.6488286852836609
1772456007092015400,13.289015380859375,2.999934673309326,-0.8906430602073669,0.8595184087753296
1772456007101984500,13.298984619140626,5.243301868438721,-0.6991068720817566,1.0558429956436157
1772456007112012300,13.30901220703125,6.842628479003906,0.21547815203666687,1.414973258972168
1772456007121980400,13.31898046875,8.17141056060791,0.7757213711738586,1.9512743949890137
1772456007132325400,13.329325439453125,8.822632789611816,0.9074024558067322,2.8993782997131348
1772456007141984300,13.338984375,9.260771751403809,0.6919242739677429,3.579331636428833
1772456007151978800,13.348978759765625,8.678980827331543,0.5363011956214905,3.9600095748901367
1772456007161996300,13.358996337890625,8.13789176940918,0.24660277366638184,4.223371982574463
1772456007191969800,13.3889697265625,6.045359134674072,0.33997663855552673,2.853888511657715
1772456007201952500,13.398952392578124,5.173870086669922,0.4141969084739685,2.341529369354248
1772456007212592600,13.409592529296875,4.151545524597168,0.49799394607543945,1.9847931861877441
1772456007221959400,13.41895947265625,2.980781078338623,0.7110779285430908,1.5945383310317993
1772456007233898000,13.43089794921875,2.1092917919158936,0.9672574996948242,1.3192051649093628
1772456007241964500,13.438964599609376,0.871489405632019,1.036689281463623,0.9265560507774353
1772456007252003300,13.44900341796875,0.19632454216480255,1.1252747774124146,0.5578489899635315
1772456007261956600,13.45895654296875,-0.8307880163192749,1.256955862045288,-0.07900865375995636
1772456007271957200,13.468957275390625,-1.7549498081207275,1.5179238319396973,-0.6799532771110535
1772456007291962600,13.488962646484374,-5.705382823944092,1.455674648284912,-1.4915876388549805
1772456007301937400,13.4989375,-6.536170482635498,0.5746083855628967,-2.363077163696289
1772456007311937300,13.508937255859376,-6.955155849456787,0.08858546614646912,-2.9903578758239746
1772456007321909000,13.518908935546875,-7.479485988616943,0.3519476354122162,-3.404554843902588
1772456007332238600,13.529238525390625,-7.4316020011901855,0.9313444495201111,-3.19865345954895
1772456007341922300,13.53892236328125,-7.144298076629639,1.6879122257232666,-2.9951462745666504
1772456007351937000,13.54893701171875,-5.22175407409668,3.2369606494903564,-2.63362193107605
1772456007361923000,13.558923095703125,-4.584896087646484,4.141968727111816,-2.293645143508911
1772456007372536600,13.56953662109375,-3.737348794937134,4.446032524108887,-1.656787633895874
1772456007394406100,13.59140625,-2.0853497982025146,2.75812029838562,-0.6057330369949341
1772456007401895700,13.598895751953124,-2.0925323963165283,1.5442601442337036,-0.016759412363171577
1772456007411916300,13.608916259765625,-2.1571757793426514,-0.38067805767059326,0.5770025849342346
1772456007421904400,13.618904296875,-2.695871114730835,-2.4444799423217773,1.0558429956436157
1772456007432228400,13.629228271484376,-2.604891538619995,-4.424484729766846,1.137245774269104
1772456007441901300,13.6389013671875,-2.535459518432617,-5.556941986083984,0.8667010068893433
1772456007451908900,13.648908935546874,-2.655169725418091,-5.631162166595459,0.43095630407333374
1772456007461868000,13.658867919921875,-2.604891538619995,-5.224148273468018,0.040701430290937424
1772456007472058600,13.66905859375,-2.099714994430542,-4.960785865783691,-0.2322375625371933
1772456007481862400,13.6788623046875,-1.6903064250946045,-4.5609540939331055,-0.3256114423274994
1772456007511916300,13.708916259765624,-0.17477671802043915,-3.758896589279175,0.23702596127986908
1772456007521842000,13.718842041015625,0.9481038451194763,-3.0334534645080566,0.49799394607543945
1772456007532769500,13.72976953125,1.8148049116134644,-2.410961151123047,0.8475474119186401
1772456007541864200,13.7388642578125,2.738966703414917,-1.8171991109848022,1.161187767982483
1772456007553498400,13.750498291015624,3.421314239501953,-1.2497732639312744,1.2210428714752197
1772456007561875700,13.758875732421876,4.309563159942627,-0.7350199222564697,1.2761094570159912
1772456007571881700,13.7688818359375,4.807557106018066,0.23942017555236816,1.139639973640442
1772456007581861400,13.778861328125,5.51624059677124,0.5219359993934631,1.1827356815338135
1772456007591896600,13.788896484375,5.580883979797363,1.0534487962722778,1.0223240852355957
1772456007611852300,13.808852294921875,4.955997467041016,1.45806884765625,0.9193734526634216
1772456007621852000,13.818851806640625,4.663905143737793,1.7932571172714233,1.2114660739898682
1772456007632196000,13.829196044921876,3.624821424484253,2.1715409755706787,1.314416766166687
1772456007641855000,13.83885498046875,2.7509377002716064,2.3032219409942627,1.0462661981582642
1772456007651855000,13.848855224609375,1.7525556087493896,2.1475989818573,0.6560112833976746
1772456007661854200,13.858854248046875,0.524330198764801,1.8411411046981812,0.42616790533065796
1772456007671887000,13.86888720703125,-0.950498104095459,1.4437036514282227,-0.014365210197865963
1772456007681852700,13.878852783203126,-2.5282769203186035,1.292868971824646,-0.45250412821769714
1772456007692473600,13.8894736328125,-3.9815573692321777,1.5059528350830078,-0.8619126081466675
1772456007721876700,13.918876708984374,-8.183381080627441,0.7805097699165344,-1.7980455160140991
1772456007732200200,13.9292001953125,-8.422801971435547,0.14604631066322327,-2.10210919380188
1772456007741877000,13.938876953125,-8.78193187713623,-0.3016694188117981,-2.4588451385498047
1772456007751925000,13.948925048828125,-8.480262756347656,-0.8930372595787048,-2.7509377002716064
1772456007761891000,13.95889111328125,-8.293514251708984,-1.3718775510787964,-2.7724854946136475
1772456007771900200,13.968900146484375,-7.68538761138916,-1.9369091987609863,-2.52109432220459
1772456007781905700,13.97890576171875,-6.598419666290283,-2.1332337856292725,-2.0853497982025146
1772456007791955500,13.98895556640625,-5.9519853591918945,-2.1811177730560303,-1.3886369466781616
1772456007801922300,13.99892236328125,-4.716577529907227,-1.9297266006469727,-0.9241618514060974
1772456007811936000,14.00893603515625,-4.122815132141113,-1.6089035272598267,-0.37828385829925537
1772456007832284000,14.029283935546875,-1.5394717454910278,-0.5961562395095825,0.15322890877723694
1772456007841949200,14.03894921875,-0.18914192914962769,0.09576806426048279,0.5961562395095825
1772456007852574500,14.049574462890625,0.49559974670410156,0.6823474764823914,1.072602391242981
1772456007861970700,14.058970703125,1.7884687185287476,1.1851298809051514,1.5682021379470825
1772456007873659600,14.07065966796875,2.5282769203186035,1.280897855758667,2.0661959648132324
1772456007882008800,14.0790087890625,3.2752678394317627,1.1563993692398071,2.382230758666992
1772456007892029400,14.089029541015625,4.4292731285095215,0.4692635238170624,2.583343744277954
1772456007902025000,14.09902490234375,5.104437828063965,0.7015010714530945,2.693476915359497
1772456007912079000,14.1090791015625,5.635950565338135,0.8020575642585754,2.8802247047424316
1772456007922050800,14.11905078125,5.901707172393799,0.7924807667732239,3.00711727142334
1772456007932396800,14.129396728515625,5.825092792510986,0.706289529800415,3.0142998695373535
1772456007942079200,14.139079345703125,5.477933406829834,0.7924807667732239,2.7485435009002686
1772456007952141800,14.149141845703125,4.999093055725098,0.8906430602073669,2.6216509342193604
1772456007962116000,14.1591162109375,4.242525577545166,1.0295066833496094,2.3104045391082764
1772456007972133400,14.16913330078125,3.665522813796997,1.0055646896362305,1.9488801956176758
1772456007982131200,14.179131103515624,2.6815059185028076,0.6847416758537292,1.53707754611969
1772456007992171000,14.1891708984375,1.6328455209732056,0.35913026332855225,0.9648633003234863
1772456008002136300,14.19913623046875,0.14844051003456116,-0.019153613597154617,0.33758243918418884
1772456008012765200,14.20976513671875,-1.4389152526855469,-0.1604115068912506,-0.2298433631658554
1772456008035025700,14.232025634765625,-4.501099109649658,-1.3072341680526733,-1.2210428714752197
1772456008042240800,14.23924072265625,-6.258443355560303,-1.702277421951294,-1.8171991109848022
1772456008052261000,14.24926123046875,-7.60637903213501,-1.9153614044189453,-2.2816741466522217
1772456008062253000,14.259253173828125,-8.11634349822998,-2.2888567447662354,-2.806004285812378
1772456008072314400,14.269314453125,-8.29590892791748,-2.1811177730560303,-3.2776620388031006
1772456008082281500,14.279281494140625,-8.180987358093262,-2.049436569213867,-3.3638534545898438
1772456008092292600,14.289292724609375,-7.402871608734131,-1.723825216293335,-3.533841609954834
1772456008102291700,14.299291748046874,-6.447585105895996,-1.8052281141281128,-3.5003228187561035
1772456008112329200,14.3093291015625,-5.801150798797607,-2.207453966140747,-2.96162748336792
1772456008122301200,14.31930126953125,-4.874594688415527,-2.63362193107605,-2.5115175247192383
1772456008142322700,14.33932275390625,-3.1699230670928955,-3.0358476638793945,-1.137245774269104
1772456008152370400,14.349370361328125,-2.229001760482788,-3.0119056701660156,-0.47644615173339844
1772456008162338300,14.35933837890625,-0.49559974670410156,-1.8602946996688843,0.3519476354122162
1772456008172971300,14.36997119140625,0.14844051003456116,-0.9576807022094727,0.5793967843055725
1772456008182354000,14.37935400390625,1.4532804489135742,-0.08140286058187485,0.9983820915222168
1772456008193987800,14.39098779296875,2.387019157409668,0.7733271718025208,1.647210717201233
1772456008202365700,14.39936572265625,3.335123062133789,2.8107926845550537,2.075772762298584
1772456008212378000,14.409378173828125,3.9025487899780273,4.812345504760742,2.274491548538208
1772456008222366700,14.41936669921875,5.190629482269287,5.920860767364502,2.779668092727661
1772456008232713500,14.42971337890625,5.966350555419922,6.133944988250732,3.117250680923462
1772456008252392400,14.449392333984376,5.710171222686768,4.788403511047363,3.112462282180786
1772456008262391000,14.45939111328125,5.295974254608154,4.201824188232422,2.7317841053009033
1772456008272431000,14.46943115234375,4.797980308532715,3.976768970489502,2.387019157409668
1772456008282404900,14.47940478515625,4.304774761199951,3.9839515686035156,2.1164743900299072
1772456008292421000,14.489421142578125,3.9384617805480957,4.129997730255127,1.6974890232086182
1772456008302410800,14.49941064453125,3.665522813796997,4.01268196105957,1.4748282432556152
1772456008312461800,14.5094619140625,3.40216064453125,3.8714241981506348,0.9840168952941895
1772456008322426000,14.519426025390626,2.473210334777832,3.361459255218506,0.5674257874488831
1772456008333359600,14.530359619140626,1.403002142906189,2.671929121017456,0.24660277366638184
1772456008355000600,14.55200048828125,-0.9528923034667969,-0.019153613597154617,-0.181959331035614
1772456008362503400,14.55950341796875,-1.479616641998291,-1.7549498081207275,-0.3711012601852417
1772456008372532500,14.569532470703125,-2.425326347351074,-3.117250680923462,-0.8858546018600464
1772456008382531300,14.57953125,-3.4141316413879395,-4.039018154144287,-1.338358759880066
1772456008392576300,14.589576171875,-4.041412353515625,-4.680664539337158,-1.3646949529647827
1772456008402558200,14.59955810546875,-4.853046894073486,-5.094861030578613,-1.3718775510787964
1772456008412586200,14.609586181640625,-5.212177276611328,-5.693411827087402,-1.4891934394836426
1772456008422609000,14.61960888671875,-4.747702121734619,-7.06528902053833,-1.9033904075622559
1772456008432954400,14.629954345703124,-4.199429988861084,-6.629544734954834,-2.0039467811584473
1772456008442616000,14.639615966796875,-3.622427225112915,-5.57370138168335,-1.843535304069519
1772456008462642000,14.659641845703124,-2.43011474609375,-3.5027170181274414,-0.7469909191131592
1772456008472682500,14.6696826171875,-1.558625340461731,-2.671929121017456,-0.2944868206977844
1772456008482654500,14.679654541015625,-0.507570743560791,-1.5753847360610962,0.19393034279346466
1772456008493283800,14.690283935546875,0.06464344263076782,-0.629675030708313,0.7182605266571045
1772456008502679800,14.6996796875,0.9241618514060974,0.6919242739677429,1.0654197931289673
1772456008514370800,14.711370849609375,1.721431016921997,1.6615760326385498,1.4437036514282227
1772456008522716700,14.719716552734376,2.4468741416931152,2.7916390895843506,1.843535304069519
1772456008533048600,14.730048583984376,3.1483752727508545,3.706224203109741,2.097320795059204
1772456008542743300,14.739743408203125,3.9217023849487305,4.089296340942383,2.382230758666992
1772456008562770700,14.759770751953125,4.525041103363037,4.548983097076416,2.408566951751709
1772456008572791000,14.769791015625,4.467580318450928,4.599261283874512,2.3104045391082764
1772456008582784000,14.779783935546876,4.532223701477051,4.850652694702148,2.2888567447662354
1772456008592827000,14.789826904296875,4.268861770629883,4.970362663269043,2.2433669567108154
1772456008602818800,14.79981884765625,4.039018154144287,5.142745018005371,2.3558945655822754
1772456008612832500,14.80983251953125,3.773261785507202,4.9583916664123535,2.3080103397369385
1772456008622822400,14.819822509765626,3.507505416870117,4.67827033996582,2.073378562927246
1772456008633172500,14.83017236328125,3.201047658920288,4.55616569519043,1.6089035272598267
1772456008642820600,14.839820556640625,2.6216509342193604,4.3861775398254395,0.9768342971801758
1772456008675362300,14.8723623046875,0.42616790533065796,3.0550012588500977,0.395043283700943
1772456008682855000,14.87985498046875,0.07422025501728058,2.3558945655822754,0.16998831927776337
1772456008692859600,14.889859619140625,-0.5889736413955688,1.1635819673538208,-0.45250412821769714
1772456008702848500,14.8998486328125,-1.0869675874710083,0.09576806426048279,-0.6344634294509888
1772456008712885500,14.909885498046876,-1.479616641998291,-1.1683704853057861,-0.7015010714530945
1772456008722848000,14.919847900390625,-1.7405846118927002,-2.9281086921691895,-0.4884171485900879
1772456008733168000,14.930168212890624,-2.0254945755004883,-4.654327869415283,-0.3974374830722809
1772456008742848300,14.93984814453125,-2.2457611560821533,-6.473921298980713,-0.22505496442317963
1772456008772852700,14.969852783203125,-2.9472622871398926,-9.232041358947754,-0.1867477297782898
1772456008782838800,14.9798388671875,-2.5953147411346436,-9.265560150146484,-0.4908113479614258
1772456008792894000,14.98989404296875,-2.2601263523101807,-8.037335395812988,-0.7565677165985107
1772456008802859500,14.999859619140626,-1.7549498081207275,-6.493074893951416,-0.7541735172271729
1772456008813473500,15.0104736328125,-1.3479355573654175,-5.058948040008545,-0.4141969084739685
1772456008822882600,15.019882568359375,-0.8906430602073669,-3.6128504276275635,-0.090979665517807
1772456008834830300,15.031830322265625,-0.5578489899635315,-2.5043349266052246,0.30885201692581177
1772456008852969000,15.049968994140626,0.016759412363171577,0.5315127968788147,0.8379706144332886
1772456008873006800,15.0700068359375,0.6224924325942993,3.5721490383148193,1.1468225717544556
1772456008882980000,15.07997998046875,0.9313444495201111,4.5609540939331055,1.2497732639312744
1772456008893011700,15.09001171875,1.5155296325683594,5.123591423034668,1.1875240802764893
1772456008903016200,15.10001611328125,2.0853497982025146,5.272032260894775,1.1516109704971313
1772456008913072000,15.110072021484376,2.6408045291900635,5.305551052093506,0.9768342971801758
1772456008923043600,15.120043701171875,2.779668092727661,5.760449409484863,1.2330138683319092
1772456008933380600,15.130380615234374,3.0550012588500977,5.904101371765137,1.4197616577148438
1772456008943071200,15.1400712890625,3.426102638244629,6.100425720214844,1.5275006294250488
1772456008953121300,15.150121337890624,3.624821424484253,5.868188381195068,1.5083470344543457
1772456008963095000,15.160094970703126,3.380612850189209,5.655104637145996,1.3239935636520386
1772456008983115000,15.180114990234374,2.7724854946136475,4.941632270812988,1.1300631761550903
1772456008995674000,15.192674072265625,2.47560453414917,4.309563159942627,0.9840168952941895
1772456009003174400,15.20017431640625,2.2026655673980713,3.552995204925537,0.871489405632019
1772456009013189600,15.210189697265625,1.900996208190918,2.9496564865112305,0.7541735172271729
1772456009023178800,15.2201787109375,1.558625340461731,2.300827741622925,0.6991068720817566
1772456009033534000,15.230533935546875,0.9217676520347595,1.3838485479354858,0.5889736413955688
1772456009043200300,15.2402001953125,0.3711012601852417,0.31364041566848755,0.49559974670410156
1772456009053215700,15.2502158203125,-0.42377370595932007,-1.137245774269104,0.395043283700943
1772456009063213000,15.260213134765625,-1.015141487121582,-2.671929121017456,0.22026655077934265
1772456009073252400,15.27025244140625,-1.3646949529647827,-4.199429988861084,-0.05027823522686958
1772456009083474400,15.280474365234374,-1.9177556037902832,-5.688623428344727,-0.0694318488240242
1772456009093242000,15.2902421875,-2.5450363159179688,-7.007828235626221,-0.033518824726343155
1772456009103209200,15.300209228515625,-2.853888511657715,-7.797914981842041,-0.4118026793003082
1772456009113261800,15.31026171875,-3.797203779220581,-8.219294548034668,-0.4884171485900879
1772456009123201000,15.320200927734374,-4.022258758544922,-8.44434928894043,-0.7757213711738586
1772456009134161700,15.33116162109375,-3.7612907886505127,-7.510610580444336,-1.0797849893569946
1772456009143212000,15.3402119140625,-3.3423056602478027,-6.342240333557129,-1.2641384601593018
1772456009154892500,15.351892578125,-2.913743495941162,-4.917690277099609,-1.1755530834197998
1772456009163208200,15.360208251953125,-2.5258827209472656,-3.6511576175689697,-1.0654197931289673
1772456009173226000,15.37022607421875,-2.1140801906585693,-2.5498247146606445,-0.9169792532920837
1772456009203182300,15.400182373046874,-0.4836287498474121,1.1061211824417114,-0.09816227108240128
1772456009213196800,15.41019677734375,0.20350714027881622,2.0877439975738525,0.09576806426048279
1772456009223198200,15.4201982421875,1.235408067703247,3.823540210723877,0.29209262132644653
1772456009233555200,15.43055517578125,1.644816517829895,4.402936935424805,0.38067805767059326
1772456009243206100,15.4402060546875,1.968033790588379,4.637568473815918,0.4381389021873474
1772456009253206000,15.4502060546875,2.3127987384796143,4.812345504760742,0.5626373887062073
1772456009263182000,15.46018212890625,2.4372973442077637,4.970362663269043,0.6536170840263367
1772456009273214000,15.4702138671875,2.537853717803955,5.013458251953125,0.5841852426528931
1772456009283198700,15.48019873046875,2.5665841102600098,5.286397457122803,0.5937620401382446
1772456009303198500,15.500198486328125,2.7054479122161865,5.006275653839111,0.5937620401382446
1772456009315724300,15.512724365234375,2.427720546722412,4.599261283874512,0.507570743560791
1772456009323215400,15.52021533203125,2.1763293743133545,4.343081951141357,0.545877993106842
1772456009333534200,15.5305341796875,1.7142484188079834,3.734954595565796,0.5291185975074768
1772456009343230500,15.54023046875,1.314416766166687,3.2800562381744385,0.49799394607543945
1772456009353256700,15.550256591796876,0.7876923680305481,2.516305923461914,0.22744916379451752
1772456009363207200,15.560207275390624,0.33279404044151306,1.824381709098816,0.19153612852096558
1772456009373238300,15.57023828125,-0.304063618183136,0.5434837937355042,0.14844051003456116
1772456009383209200,15.580209228515624,-0.9552865028381348,-0.6105214357376099,0.28730419278144836
1772456009413205000,15.610205078125,-2.070984363555908,-4.845864295959473,0.35913026332855225
1772456009423201300,15.620201171875,-2.9759926795959473,-6.57926607131958,0.33758243918418884
1772456009433544700,15.630544677734376,-4.247313976287842,-8.085219383239746,0.3423708379268646
1772456009443197700,15.64019775390625,-5.485116004943848,-10.08198356628418,0.24181437492370605
1772456009453825500,15.650825439453126,-5.717353820800781,-11.238382339477539,-0.038307227194309235
1772456009463211000,15.6602109375,-5.250484466552734,-11.559206008911133,-0.4189853072166443
1772456009474846700,15.6718466796875,-4.5609540939331055,-9.742006301879883,-0.7661445140838623
1772456009483223600,15.6802236328125,-3.5936968326568604,-7.553706169128418,-1.039083480834961
1772456009493229800,15.690229736328124,-2.454056739807129,-5.791574001312256,-0.608127236366272
1772456009513224400,15.710224365234374,-1.4772224426269531,-2.406172752380371,0.0071826050989329815
1772456009523198200,15.7201982421875,-0.6943184733390808,-1.290474772453308,0.19632454216480255
1772456009533516300,15.730516357421875,0.040701430290937424,-0.24660277366638184,0.40701428055763245
1772456009543193300,15.740193359375,0.8810662031173706,1.1109095811843872,0.5147533416748047
1772456009553213700,15.750213623046875,1.522712230682373,2.4684219360351562,0.5482721924781799
1772456009563172000,15.760172119140625,2.0039467811584473,3.5745432376861572,0.7876923680305481
1772456009573180700,15.7701806640625,2.9041666984558105,4.446032524108887,0.8906430602073669
1772456009583160000,15.78016015625,3.2609026432037354,4.898536682128906,1.1827356815338135
1772456009593187000,15.79018701171875,3.646369218826294,5.166687488555908,1.3623007535934448
1772456009603147300,15.800147216796875,4.146757125854492,5.602431774139404,1.1324573755264282
1772456009623154200,15.820154296875,4.223371982574463,6.349422931671143,0.6320692300796509
1772456009635965400,15.83296533203125,3.928884983062744,6.09324312210083,0.7948749661445618
1772456009643157500,15.840157470703126,3.845088005065918,6.1315507888793945,0.9265560507774353
1772456009653156000,15.850156005859375,3.201047658920288,5.686229228973389,0.9528923034667969
1772456009663160300,15.860160400390624,2.5067291259765625,5.128379821777344,1.0414776802062988
1772456009673176300,15.87017626953125,1.647210717201233,4.364629745483398,0.8164227604866028
1772456009683128600,15.880128662109374,0.8451532125473022,3.7469255924224854,0.5434837937355042
1772456009693129000,15.89012890625,0.07661445438861847,3.066972494125366,0.24181437492370605
1772456009703116800,15.90011669921875,-0.7924807667732239,2.3271639347076416,0.07900865375995636
1772456009713148700,15.910148681640624,-1.647210717201233,1.3838485479354858,0.1149216815829277
1772456009733421800,15.930421875,-3.047818660736084,-0.5961562395095825,-0.05027823522686958
1772456009743251700,15.940251708984375,-3.7636849880218506,-1.5514427423477173,0.002394201699644327
1772456009753116700,15.95011669921875,-4.5394062995910645,-2.078166961669922,-0.043095629662275314
1772456009763070500,15.960070556640625,-5.497087001800537,-2.9759926795959473,-0.3495534360408783
1772456009773701400,15.970701416015626,-7.12035608291626,-4.623203277587891,-0.4381389021873474
1772456009783107300,15.980107421875,-6.560112476348877,-6.375759124755859,-0.5650315880775452
1772456009794762500,15.991762451171875,-5.892130374908447,-8.348581314086914,-0.7469909191131592
1772456009803073500,16.000073486328127,-6.200982570648193,-10.251971244812012,-0.9169792532920837
1772456009833445600,16.030445556640625,-5.322310447692871,-9.524134635925293,-1.644816517829895
1772456009843078100,16.040078125,-4.141968727111816,-8.092401504516602,-1.6352397203445435
1772456009853092600,16.050092529296876,-3.136404275894165,-6.856993675231934,-1.2617442607879639
1772456009863093500,16.060093505859374,-2.980781078338623,-5.846640586853027,-0.6392518281936646
1772456009873114400,16.0701142578125,-1.7381904125213623,-5.805939197540283,-0.12449848651885986
1772456009883070200,16.0800703125,-0.17956513166427612,-5.324704647064209,0.7038952708244324
1772456009893086000,16.0900859375,0.45010992884635925,-4.0964789390563965,1.3192051649093628
1772456009903384000,16.100384033203124,1.599326729774475,-2.6240451335906982,1.9273324012756348
1772456009934001400,16.13100146484375,2.738966703414917,1.1204863786697388,3.023876667022705
1772456009943071700,16.14007177734375,2.937685489654541,1.3455413579940796,2.937685489654541
1772456009955625700,16.152625732421875,3.1459810733795166,1.4508862495422363,2.8610711097717285
1772456009963124700,16.160124755859375,3.114856481552124,1.1563993692398071,2.832340717315674
1772456009973128000,16.1701279296875,3.028665065765381,1.2880805730819702,2.6671407222747803
1772456009983117800,16.180117919921877,3.090914487838745,1.1444283723831177,2.425326347351074
1772456009993149000,16.19014892578125,3.0813376903533936,1.2737152576446533,2.2218191623687744
1772456010003117300,16.200117431640624,3.248931646347046,1.3982137441635132,2.4588451385498047
1772456010013127000,16.210126953125,3.1100680828094482,1.7812861204147339,2.631227731704712
1772456010033486600,16.230486572265626,2.9712042808532715,2.1739351749420166,2.9161376953125
1772456010043135500,16.240135498046875,2.4636335372924805,1.8962076902389526,2.477998733520508
1772456010053156000,16.250156005859374,1.9321208000183105,1.316810965538025,2.1547815799713135
1772456010063160000,16.26016015625,1.3503297567367554,0.45250412821769714,1.6974890232086182
1772456010073189600,16.270189697265625,0.7852981686592102,-0.27054479718208313,1.2449848651885986
1772456010083149800,16.28014990234375,-0.1364694982767105,-1.2090718746185303,0.9744400978088379
1772456010093759700,16.290759765625,-0.5410895943641663,-1.9273324012756348,0.5770025849342346
1772456010103174700,16.300174560546875,-1.3934253454208374,-2.5258827209472656,0.11971008777618408
1772456010114789000,16.3117890625,-2.343923568725586,-3.0166940689086914,-0.20350714027881622
1772456010143186200,16.340186279296876,-5.063736438751221,-5.0014872550964355,-1.256955862045288
1772456010153190100,16.350190185546875,-5.750872611999512,-5.2696380615234375,-1.8148049116134644
1772456010163145200,16.360145263671875,-6.576871871948242,-5.530605792999268,-2.454056739807129
1772456010173150500,16.370150390625,-6.799532890319824,-5.214571475982666,-2.9712042808532715
1772456010183154200,16.380154296875,-6.653486728668213,-5.367800235748291,-3.047818660736084
1772456010193188900,16.39018896484375,-6.370970726013184,-4.862623691558838,-3.155557870864868
1772456010203150600,16.400150634765627,-5.971138954162598,-4.108449935913086,-3.134010076522827
1772456010213175600,16.410175537109374,-5.78678560256958,-3.337517261505127,-2.9233202934265137
1772456010223169800,16.420169677734375,-5.092466831207275,-2.3942017555236816,-2.365471363067627
1772456010253862700,16.450862548828123,-3.138798475265503,-0.3878606855869293,-0.993593692779541
1772456010263264500,16.460264404296876,-2.2002713680267334,0.038307227194309235,-0.3687070608139038
1772456010275777000,16.472777099609374,-1.4269442558288574,0.26096799969673157,0.15801730751991272
1772456010283263200,16.48026318359375,-0.4357447028160095,0.7493851184844971,0.5889736413955688
1772456010293261600,16.490261474609376,0.40222588181495667,1.4269442558288574,0.8092401623725891
1772456010303256000,16.500256103515625,1.1540051698684692,1.7190368175506592,1.0654197931289673
1772456010313301000,16.510301025390625,2.5091233253479004,2.4157495498657227,1.5729905366897583
1772456010323302400,16.520302490234375,2.940079689025879,2.499546527862549,2.0015525817871094
1772456010353445600,16.550445556640625,5.372588634490967,2.7916390895843506,2.5282769203186035
1772456010363449600,16.56044970703125,5.396530628204346,2.9520506858825684,2.5929205417633057
1772456010373503000,16.5705029296875,5.0469770431518555,3.093308687210083,2.3511061668395996
1772456010383516400,16.580516357421875,4.876988887786865,3.0166940689086914,2.207453966140747
1772456010393559800,16.590559814453126,4.278438568115234,2.7772738933563232,1.86508309841156
1772456010403512000,16.600511962890625,3.620033025741577,2.6647465229034424,1.4197616577148438
1772456010414161700,16.61116162109375,2.7557260990142822,2.3295583724975586,0.9313444495201111
1772456010423581000,16.620580810546876,2.030282974243164,2.027888774871826,0.7110779285430908
1772456010435902200,16.632902099609375,1.0558429956436157,1.6711528301239014,0.3280056416988373
1772456010473729500,16.6707294921875,-2.5450363159179688,-1.3742717504501343,-1.0606313943862915
1772456010483734000,16.680734130859374,-3.536235809326172,-2.142810583114624,-1.5849615335464478
1772456010493789400,16.69078955078125,-4.5825018882751465,-2.6647465229034424,-1.9632453918457031
1772456010503784400,16.700784423828125,-5.5545477867126465,-3.4548330307006836,-2.341529369354248
1772456010513801500,16.710801513671875,-5.837063789367676,-3.885789394378662,-2.3104045391082764
1772456010523753000,16.7207529296875,-6.572083473205566,-4.091690540313721,-2.31758713722229
1772456010534079000,16.731078857421874,-6.44279670715332,-3.8498764038085938,-2.1954829692840576
1772456010543780400,16.7407802734375,-6.143521785736084,-4.031835556030273,-2.0470423698425293
1772456010563746600,16.76074658203125,-5.250484466552734,-3.222595453262329,-1.7956513166427612
1772456010574355200,16.771355224609376,-4.041412353515625,-2.1116859912872314,-1.403002142906189
1772456010583737600,16.780737548828125,-3.1938650608062744,-1.4987702369689941,-0.9481038451194763
1772456010596248800,16.793248779296874,-2.3127987384796143,-0.9624691009521484,-0.47165772318840027
1772456010603742200,16.8007421875,-1.192312479019165,-0.2322375625371933,0.1173158809542656
1772456010613742800,16.810742919921875,0.2106897532939911,0.43095630407333374,0.6847416758537292
1772456010623735600,16.820735595703123,1.4724340438842773,0.9648633003234863,1.2545616626739502
1772456010634096000,16.83109619140625,2.671929121017456,1.6950948238372803,1.6304513216018677
1772456010643744300,16.840744140625,3.4572272300720215,2.2649147510528564,1.8626888990402222
1772456010653748200,16.850748291015623,4.094084739685059,2.6360161304473877,2.145204782485962
1772456010673760300,16.87076025390625,4.982333660125732,2.7078421115875244,2.406172752380371
1772456010683719400,16.880719482421874,5.274426460266113,2.631227731704712,2.6431987285614014
1772456010693721900,16.890721923828124,5.2672438621521,2.784456491470337,2.693476915359497
1772456010703696400,16.9006962890625,5.305551052093506,3.069366693496704,2.6839001178741455
1772456010713711900,16.9107119140625,4.865017890930176,3.1268274784088135,2.540247917175293
1772456010723685600,16.920685546875,4.630385875701904,3.1890766620635986,2.4851813316345215
1772456010734603500,16.931603515625,4.240131378173828,3.181894063949585,2.406172752380371
1772456010743664000,16.9406640625,3.847482204437256,3.1938650608062744,2.3798365592956543
1772456010755275800,16.95227587890625,3.2752678394317627,3.071760892868042,2.315192937850952
1772456010783667700,16.980667724609376,2.2194249629974365,2.537853717803955,2.252943754196167
1772456010793684700,16.990684814453125,1.699883222579956,2.233790159225464,2.3726539611816406
1772456010803636500,17.000636474609376,0.6057330369949341,1.534683346748352,2.47560453414917
1772456010813682400,17.010682373046876,-0.38067805767059326,1.139639973640442,2.343923568725586
1772456010823725000,17.02072509765625,-1.625662922859192,0.5793967843055725,2.0159177780151367
1772456010834046500,17.03104638671875,-2.0829553604125977,0.28730419278144836,1.6136919260025024
1772456010843688000,17.04068798828125,-4.73573112487793,-1.6400281190872192,0.7852981686592102
1772456010853685200,17.050685302734376,-5.331887245178223,-2.6240451335906982,0.16998831927776337
1772456010863658200,17.060658203125,-7.137115478515625,-4.141968727111816,-0.9193734526634216
1772456010894258400,17.091258544921875,-9.23682975769043,-7.0772600173950195,-4.788403511047363
1772456010903632000,17.1006318359375,-9.222464561462402,-6.598419666290283,-5.635950565338135
1772456010916147000,17.11314697265625,-8.465897560119629,-4.960785865783691,-5.236119270324707
1772456010923639000,17.12063916015625,-7.773972988128662,-3.5482068061828613,-4.867412090301514
1772456010933958700,17.130958740234377,-6.878541469573975,-2.693476915359497,-4.577713489532471
1772456010943643600,17.1406435546875,-5.568912982940674,-1.6950948238372803,-4.352658748626709
1772456010953666300,17.150666259765625,-4.467580318450928,-1.0319008827209473,-3.732560396194458
1772456010963634000,17.160634033203124,-3.706224203109741,-0.47884035110473633,-2.829946517944336
1772456010973635600,17.170635498046874,-3.31118106842041,-0.3519476354122162,-1.5969325304031372
1772456010993651200,17.190651123046877,-1.7525556087493896,0.1628057211637497,-0.040701430290937424
1772456011003609300,17.200609375,-0.5554547905921936,0.6703764796257019,0.5315127968788147
1772456011013637400,17.210637451171873,0.5889736413955688,1.0199298858642578,1.0295066833496094
1772456011023628800,17.22062890625,2.126051187515259,1.6089035272598267,1.6663644313812256
1772456011033965300,17.23096533203125,3.268085241317749,2.2002713680267334,2.2649147510528564
1772456011043617500,17.240617431640626,4.402936935424805,3.1292216777801514,2.7748796939849854
1772456011054231800,17.251231689453125,5.245696067810059,3.8498764038085938,3.222595453262329
1772456011063633000,17.2606328125,5.729324817657471,4.182670593261719,3.5745432376861572
1772456011075302400,17.272302490234374,5.57370138168335,3.9432501792907715,3.7229835987091064
1772456011093654000,17.290654052734375,4.855441093444824,2.4660277366638184,3.845088005065918
1772456011103649300,17.300649169921876,4.302380561828613,1.6687586307525635,3.6990416049957275
1772456011113685200,17.310685302734374,4.086902141571045,1.158793568611145,3.2800562381744385
1772456011123656700,17.32065673828125,3.3949780464172363,0.6703764796257019,2.0901381969451904
1772456011133979100,17.330979248046877,2.983175277709961,0.47884035110473633,1.6950948238372803
1772456011143668000,17.34066796875,2.2649147510528564,0.2968810200691223,1.2066776752471924
1772456011153703400,17.350703369140625,1.6376339197158813,0.2992752194404602,0.727837324142456
1772456011163690800,17.360690673828124,0.9816226959228516,0.19153612852096558,0.3256114423274994
1772456011173711600,17.370711669921874,0.3926490843296051,0.14604631066322327,-0.07182604819536209
1772456011183719000,17.380718994140626,-0.5315127968788147,-0.1867477297782898,-0.6320692300796509
1772456011203722200,17.40072216796875,-2.6384103298187256,-0.7781155705451965,-1.558625340461731
1772456011214352100,17.41135205078125,-3.9049429893493652,-0.9528923034667969,-2.008735179901123
1772456011223759400,17.42075927734375,-5.604825973510742,-1.015141487121582,-2.6575639247894287
1772456011236585700,17.433585693359376,-7.050923824310303,-1.534683346748352,-3.114856481552124
1772456011243795200,17.440795166015626,-8.051700592041016,-2.494758129119873,-3.797203779220581
1772456011253835800,17.450835693359377,-7.9176249504089355,-3.8355112075805664,-4.2090067863464355
1772456011263830500,17.46083056640625,-7.802703380584717,-4.304774761199951,-4.481945514678955
1772456011273859300,17.470859375,-6.98628044128418,-3.1052796840667725,-4.3191399574279785
1772456011283822300,17.480822265625,-6.076483726501465,-1.1492167711257935,-4.041412353515625
