time,seconds_elapsed,z,y,x
1772455995973427500,2.170427490234375,-1.060359001159668,6.943946361541748,-6.843070983886719
1772455995984090000,2.181090087890625,-1.0360897779464722,6.935492515563965,-6.855350971221924
1772455995994076400,2.191076416015625,-0.9102991819381714,6.945765018463135,-6.86280632019043
1772455996004123100,2.201123046875,-0.9893776774406433,6.929636478424072,-6.868162631988525
1772455996014134000,2.211134033203125,-1.0068359375,6.927656173706055,-6.8676228523254395
1772455996024482300,2.221482421875,-1.0033414363861084,6.929455280303955,-6.8663225173950195
1772455996034144000,2.23114404296875,-1.0010769367218018,6.9307098388671875,-6.86538553237915
1772455996044193300,2.241193359375,-1.0004476308822632,6.931123733520508,-6.865058898925781
1772455996054154200,2.251154296875,-1.0013644695281982,6.931519031524658,-6.864525318145752
1772455996064192000,2.26119189453125,-1.0023388862609863,6.931534290313721,-6.864367961883545
1772455996074176800,2.2711767578125,-1.002074122428894,6.931894302368164,-6.864043235778809
1772455996105810200,2.30281005859375,-0.9939356446266174,6.935757637023926,-6.861323356628418
1772455996114223900,2.311223876953125,-0.9917071461677551,6.936858177185059,-6.860533714294434
1772455996124576800,2.32157666015625,-0.9891654849052429,6.938046932220459,-6.859699249267578
1772455996134239700,2.33123974609375,-0.9868752360343933,6.9388885498046875,-6.859175205230713
1772455996144276700,2.34127685546875,-0.9861618280410767,6.939021587371826,-6.8591437339782715
1772455996154282200,2.3512822265625,-0.9834237694740295,6.939233779907227,-6.859321594238281
1772455996164334800,2.3613349609375,-0.9825482964515686,6.939162254333496,-6.85952091217041
1772455996174314200,2.371314208984375,-0.982580304145813,6.939216613769531,-6.859462261199951
1772455996184336100,2.381336181640625,-0.9815218448638916,6.939239025115967,-6.85959005355835
1772455996194326300,2.391326171875,-0.978366494178772,6.939919948577881,-6.859350681304932
1772455996204369200,2.401369140625,-0.9753527045249939,6.940552234649658,-6.859139919281006
1772455996214344400,2.411344482421875,-0.9714553952217102,6.941031455993652,-6.859210968017578
1772455996224676400,2.42167626953125,-0.9682669639587402,6.941040992736816,-6.859649658203125
1772455996234350600,2.4313505859375,-0.9670068621635437,6.94096040725708,-6.8599090576171875
1772455996244995600,2.44199560546875,-0.9672743082046509,6.940810203552246,-6.8600239753723145
1772455996254373600,2.45137353515625,-0.9666494131088257,6.940754413604736,-6.860167503356934
1772455996266875100,2.463875244140625,-0.9651849269866943,6.940764427185059,-6.860365390777588
1772455996274403600,2.471403564453125,-0.9634993076324463,6.941007137298584,-6.86035680770874
1772455996284443000,2.48144287109375,-0.9612280130386353,6.941330909729004,-6.860347747802734
1772455996304462300,2.50146240234375,-0.9587582349777222,6.9418134689331055,-6.860202789306641
1772455996314460400,2.51146044921875,-0.9570056796073914,6.942463397979736,-6.859792232513428
1772455996324817200,2.521817138671875,-0.9552926421165466,6.943694114685059,-6.85878324508667
1772455996334509300,2.53150927734375,-0.9552182555198669,6.943725109100342,-6.858763217926025
1772455996344529400,2.541529296875,-0.954895555973053,6.945098876953125,-6.857418537139893
1772455996354536400,2.551536376953125,-0.9558504223823547,6.945777416229248,-6.856595516204834
1772455996364567800,2.56156787109375,-0.9567727446556091,6.946924686431885,-6.855306625366211
1772455996374544100,2.571544189453125,-0.9573838710784912,6.948459625244141,-6.853665351867676
1772455996384555500,2.581555419921875,-0.9574642777442932,6.9505462646484375,-6.851537704467773
1772455996414573600,2.611573486328125,-0.9544907808303833,6.9546637535095215,-6.847772121429443
1772455996426518800,2.623518798828125,-0.9525594115257263,6.957756996154785,-6.844897747039795
1772455996434610400,2.6316103515625,-0.952457845211029,6.9584641456604,-6.8441948890686035
1772455996444630000,2.641630126953125,-0.9525174498558044,6.959721088409424,-6.84290885925293
1772455996454594000,2.651593994140625,-0.9517439603805542,6.960287094116211,-6.842441558837891
1772455996464606500,2.6616064453125,-0.9510766267776489,6.9607157707214355,-6.842096328735352
1772455996474597400,2.671597412109375,-0.9506168961524963,6.9608154296875,-6.842059135437012
1772455996484625200,2.681625244140625,-0.9499239325523376,6.960724830627441,-6.842245578765869
1772455996514596600,2.7115966796875,-0.9477515816688538,6.959089756011963,-6.844211578369141
1772455996524934400,2.721934326171875,-0.9464106559753418,6.957601547241211,-6.845911026000977
1772455996534590700,2.7315908203125,-0.9459205269813538,6.95653772354126,-6.847057342529297
1772455996544619300,2.741619384765625,-0.9465125203132629,6.956096649169922,-6.84742546081543
1772455996554615600,2.751615478515625,-0.9457909464836121,6.9556732177734375,-6.847954750061035
1772455996565248800,2.762248779296875,-0.9435571432113647,6.954785346984863,-6.8491644859313965
1772455996574610000,2.77160986328125,-0.9416757225990295,6.954422950744629,-6.849793434143066
1772455996587094800,2.7840947265625,-0.9415126442909241,6.953904628753662,-6.850339889526367
1772455996614622500,2.81162255859375,-0.9356588125228882,6.953088283538818,-6.851970195770264
1772455996624941300,2.82194140625,-0.9332438707351685,6.952335834503174,-6.85306453704834
1772455996634619100,2.831619140625,-0.9326308369636536,6.952002048492432,-6.853485584259033
1772455996644644600,2.84164453125,-0.9313456416130066,6.951295852661133,-6.854376316070557
1772455996654606600,2.851606689453125,-0.9307807087898254,6.95045804977417,-6.855301856994629
1772455996664610000,2.861610107421875,-0.9287256598472595,6.948169708251953,-6.857900142669678
1772455996674604800,2.871604736328125,-0.9285536408424377,6.947444438934326,-6.8586602210998535
1772455996684624000,2.881623779296875,-0.9272413849830627,6.94542932510376,-6.86087703704834
1772455996694596400,2.891596435546875,-0.928295910358429,6.943463325500488,-6.862726211547852
1772455996725559800,2.922559814453125,-0.9375509023666382,6.935075759887695,-6.8699421882629395
1772455996734596900,2.931596923828125,-0.9424207210540771,6.9319167137146,-6.87246561050415
1772455996746200600,2.94320068359375,-0.949210524559021,6.927427291870117,-6.876054763793945
1772455996754612200,2.9516123046875,-0.956550657749176,6.923862457275391,-6.878626823425293
1772455996764638500,2.961638427734375,-0.967690646648407,6.9191060066223145,-6.881856918334961
1772455996774594800,2.9715947265625,-0.9735898971557617,6.917540550231934,-6.882599353790283
1772455996784805000,2.98180517578125,-0.9941356778144836,6.907285213470459,-6.889955520629883
1772455996794605800,2.991605712890625,-1.0091569423675537,6.900195598602295,-6.894874095916748
1772455996804635400,3.001635498046875,-1.027030348777771,6.891467094421387,-6.900963306427002
1772455996834636000,3.031635986328125,-1.088123083114624,6.860104560852051,-6.92281436920166
1772455996844660000,3.041659912109375,-1.1145873069763184,6.845858573913574,-6.932698726654053
1772455996854614000,3.051614013671875,-1.1473206281661987,6.827587127685547,-6.945366382598877
1772455996864617700,3.06161767578125,-1.1855175495147705,6.8054986000061035,-6.9606122970581055
1772455996874614800,3.07161474609375,-1.2052747011184692,6.795337200164795,-6.9671454429626465
1772455996885252400,3.08225244140625,-1.2812448740005493,6.748388767242432,-6.999148368835449
1772455996894608100,3.091608154296875,-1.302491307258606,6.736217498779297,-7.0069475173950195
1772455996907104500,3.1041044921875,-1.3986537456512451,6.66724967956543,-7.054215431213379
1772455996934625800,3.131625732421875,-1.57291579246521,6.534172534942627,-7.141493797302246
1772455996944634000,3.141634033203125,-1.640012264251709,6.478209495544434,-7.177297115325928
1772455996954639400,3.151639404296875,-1.7114392518997192,6.415894031524658,-7.21648645401001
1772455996964669700,3.161669677734375,-1.7861592769622803,6.348474025726318,-7.257884502410889
1772455996974639600,3.1716396484375,-1.8659248352050781,6.275655746459961,-7.301017761230469
1772455996984672000,3.181672119140625,-1.9004652500152588,6.244575500488281,-7.318736553192139
1772455996994660400,3.191660400390625,-1.9880303144454956,6.1653008460998535,-7.362553596496582
1772455997004699100,3.20169921875,-2.1301376819610596,6.02768087387085,-7.436394214630127
1772455997014668500,3.21166845703125,-2.219235897064209,5.936882972717285,-7.483236312866211
1772455997034689300,3.231689208984375,-2.389427900314331,5.74738883972168,-7.57816219329834
1772455997045332000,3.24233203125,-2.4234323501586914,5.7092461585998535,-7.596174240112305
1772455997054694400,3.2516943359375,-2.5408763885498047,5.558216571807861,-7.669456958770752
1772455997066335000,3.2633349609375,-2.5704712867736816,5.520460605621338,-7.6868438720703125
1772455997074710800,3.271710693359375,-2.6630218029022217,5.378537178039551,-7.755648136138916
1772455997084739800,3.28173974609375,-2.6861932277679443,5.3433918952941895,-7.771932125091553
1772455997094704400,3.291704345703125,-2.755066156387329,5.212717056274414,-7.836297988891602
1772455997104714500,3.301714599609375,-2.7944157123565674,5.133923530578613,-7.874291896820068
1772455997114699800,3.31169970703125,-2.831829071044922,5.055354595184326,-7.911672115325928
1772455997144719000,3.341718994140625,-2.9434680938720703,4.80522346496582,-8.025972366333008
1772455997154702600,3.35170263671875,-2.9832136631011963,4.714858055114746,-8.064794540405273
1772455997164737800,3.36173779296875,-3.003495693206787,4.676257133483887,-8.079729080200195
1772455997174702000,3.3717021484375,-3.06430721282959,4.520517349243164,-8.145262718200684
1772455997184714800,3.38171484375,-3.1029863357543945,4.41541051864624,-8.188165664672852
1772455997194707000,3.39170703125,-3.1400811672210693,4.304898262023926,-8.232748031616211
1772455997205338400,3.40233837890625,-3.158045768737793,4.259030342102051,-8.249714851379395
1772455997214716200,3.411716064453125,-3.208068370819092,4.07208776473999,-8.324469566345215
1772455997227554800,3.424554931640625,-3.247725248336792,3.9155690670013428,-8.383976936340332
1772455997254727000,3.451726806640625,-3.340975761413574,3.5593655109405518,-8.505242347717285
1772455997264735000,3.46173486328125,-3.3640804290771484,3.501417398452759,-8.520177841186523
1772455997274722800,3.471722900390625,-3.4118432998657227,3.354330539703369,-8.56026840209961
1772455997284742700,3.48174267578125,-3.455946922302246,3.1983089447021484,-8.602188110351562
1772455997294703400,3.491703369140625,-3.497183084487915,3.0434651374816895,-8.641609191894531
1772455997304707300,3.501707275390625,-3.5486257076263428,2.79083251953125,-8.705683708190918
1772455997314685000,3.511684814453125,-3.566629409790039,2.720289468765259,-8.720641136169434
1772455997325017600,3.522017578125,-3.611927032470703,2.450295925140381,-8.781825065612793
1772455997334699500,3.531699462890625,-3.6380393505096436,2.2867650985717773,-8.815086364746094
1772455997365315800,3.56231591796875,-3.7036631107330322,1.776354432106018,-8.904932975769043
1772455997374672100,3.571672119140625,-3.718433380126953,1.6253228187561035,-8.927596092224121
1772455997386265900,3.583265869140625,-3.7260730266571045,1.5583146810531616,-8.936355590820312
1772455997394654500,3.591654541015625,-3.741793632507324,1.4013807773590088,-8.9557523727417
1772455997404668700,3.601668701171875,-3.7663497924804688,1.163757085800171,-8.979459762573242
1772455997414645000,3.61164501953125,-3.789649248123169,1.0194538831710815,-8.987191200256348
1772455997424960500,3.62196044921875,-3.81585431098938,0.8711831569671631,-8.991700172424316
1772455997434640600,3.631640625,-3.8318190574645996,0.8167349100112915,-8.990023612976074
1772455997444686600,3.6416865234375,-3.8649072647094727,0.593406617641449,-8.993372917175293
1772455997464665300,3.661665283203125,-3.9179818630218506,0.31174132227897644,-8.984577178955078
1772455997474643200,3.671643310546875,-3.9508659839630127,0.1682937890291214,-8.974004745483398
1772455997484655600,3.681655517578125,-3.9784960746765137,0.1043783649802208,-8.962761878967285
1772455997494651600,3.691651611328125,-4.041367053985596,-0.13253244757652283,-8.934213638305664
1772455997504701200,3.701701171875,-4.091764450073242,-0.28920185565948486,-8.907539367675781
1772455997514704600,3.71170458984375,-4.136889934539795,-0.449079692363739,-8.880025863647461
1772455997525692400,3.7226923828125,-4.1834845542907715,-0.6271054744720459,-8.847350120544434
1772455997534751500,3.73175146484375,-4.227666854858398,-0.7745885252952576,-8.814603805541992
1772455997554788900,3.751788818359375,-4.303133487701416,-0.9977675080299377,-8.755453109741211
1772455997564824800,3.761824951171875,-4.346045017242432,-1.1539584398269653,-8.714969635009766
1772455997574785500,3.77178564453125,-4.393674373626709,-1.3028764724731445,-8.669979095458984
1772455997584781800,3.78178173828125,-4.441996097564697,-1.5380134582519531,-8.606597900390625
1772455997594758100,3.791758056640625,-4.471501350402832,-1.6751084327697754,-8.565633773803711
1772455997604800500,3.801800537109375,-4.496658802032471,-1.806044340133667,-8.525763511657715
1772455997614795300,3.811795166015625,-4.510073661804199,-1.8557257652282715,-8.507989883422852
1772455997625120800,3.822120849609375,-4.531593322753906,-1.9762496948242188,-8.469326972961426
1772455997634787300,3.831787353515625,-4.549182891845703,-2.088860273361206,-8.432794570922852
1772455997644809200,3.841809326171875,-4.5602569580078125,-2.1945035457611084,-8.399916648864746
1772455997664804400,3.861804443359375,-4.566991329193115,-2.344377279281616,-8.35565185546875
1772455997674795300,3.871795166015625,-4.554726600646973,-2.5148468017578125,-8.312667846679688
1772455997685448700,3.88244873046875,-4.5448737144470215,-2.5914549827575684,-8.29450798034668
1772455997694806000,3.891805908203125,-4.542724609375,-2.6127071380615234,-8.289017677307129
1772455997706465800,3.9034658203125,-4.524425506591797,-2.7240238189697266,-8.26314926147461
1772455997714829800,3.911829833984375,-4.523210048675537,-2.734882116317749,-8.260228157043457
1772455997725174800,3.9221748046875,-4.5038909912109375,-2.828415870666504,-8.239259719848633
1772455997734841000,3.931841064453125,-4.488082408905029,-2.883172035217285,-8.228900909423828
1772455997744874200,3.941874267578125,-4.4673051834106445,-2.9430718421936035,-8.218996047973633
1772455997754869200,3.951869140625,-4.442009925842285,-3.0064101219177246,-8.2097749710083
1772455997774890500,3.971890380859375,-4.364137649536133,-3.1537206172943115,-8.196261405944824
1772455997784910300,3.981910400390625,-4.339723110198975,-3.18463397026062,-8.19727611541748
1772455997794905900,3.99190576171875,-4.2405009269714355,-3.3245718479156494,-8.193642616271973
1772455997804935200,4.00193505859375,-4.166329860687256,-3.4124159812927246,-8.19558048248291
1772455997814901800,4.01190185546875,-4.089288234710693,-3.4987833499908447,-8.197965621948242
1772455997825217800,4.0222177734375,-4.008019924163818,-3.5866785049438477,-8.200116157531738
1772455997834890800,4.031890869140625,-3.9751172065734863,-3.6165990829467773,-8.202990531921387
1772455997845517000,4.04251708984375,-3.8406834602355957,-3.7531492710113525,-8.205695152282715
1772455997854887200,4.05188720703125,-3.7559330463409424,-3.831364154815674,-8.208781242370605
1772455997867374600,4.06437451171875,-3.6341638565063477,-3.9417009353637695,-8.211349487304688
1772455997874898700,4.071898681640625,-3.554056406021118,-4.008420467376709,-8.214112281799316
1772455997884918000,4.08191796875,-3.5085530281066895,-4.043676853179932,-8.216394424438477
1772455997894894600,4.09189453125,-3.3095717430114746,-4.1966376304626465,-8.222248077392578
1772455997904896500,4.101896484375,-3.2510604858398438,-4.236384868621826,-8.225208282470703
1772455997914887400,4.111887451171875,-3.093918800354004,-4.344192981719971,-8.229582786560059
1772455997925214700,4.122214599609375,-2.798313617706299,-4.52851676940918,-8.236042022705078
1772455997934863400,4.13186328125,-2.6009926795959473,-4.636280059814453,-8.240760803222656
1772455997944870100,4.1418701171875,-2.3799712657928467,-4.745270729064941,-8.245518684387207
1772455997954860300,4.1518603515625,-2.141103744506836,-4.8498311042785645,-8.250164985656738
1772455997964911900,4.161911865234375,-2.03779673576355,-4.889150619506836,-8.253122329711914
1772455997984906500,4.181906494140625,-1.3314591646194458,-5.098628044128418,-8.270524978637695
1772455997994900200,4.191900146484375,-1.036327838897705,-5.146910667419434,-8.28286075592041
1772455998005534700,4.20253466796875,-0.7202598452568054,-5.172287464141846,-8.300543785095215
1772455998014913300,4.211913330078125,-0.4442112147808075,-5.159870624542236,-8.327591896057129
1772455998026873900,4.223873779296875,-0.10875321924686432,-5.146268367767334,-8.347125053405762
1772455998034926300,4.23192626953125,0.1133224293589592,-5.133347988128662,-8.35501766204834
1772455998044966400,4.24196630859375,0.3910347819328308,-5.115563869476318,-8.3575439453125
1772455998054922500,4.251922607421875,0.6694814562797546,-5.090163230895996,-8.355382919311523
1772455998064926500,4.261926513671875,0.950816810131073,-5.055942535400391,-8.348880767822266
1772455998084948700,4.28194873046875,1.5208886861801147,-4.961523532867432,-8.32109260559082
1772455998094928100,4.29192822265625,1.804579734802246,-4.903016090393066,-8.299055099487305
1772455998104919300,4.301919189453125,2.0786304473876953,-4.840359687805176,-8.271674156188965
1772455998114914300,4.311914306640625,2.339963674545288,-4.775764465332031,-8.239358901977539
1772455998125258200,4.32225830078125,2.5955491065979004,-4.708478927612305,-8.201447486877441
1772455998135245000,4.3322451171875,2.8307442665100098,-4.6453351974487305,-8.159543991088867
1772455998144920800,4.3419208984375,3.0460221767425537,-4.586379051208496,-8.115246772766113
1772455998154903600,4.351903564453125,3.25331974029541,-4.534210205078125,-8.063945770263672
1772455998165547800,4.3625478515625,3.438969135284424,-4.486705303192139,-8.013322830200195
1772455998187428000,4.384427978515625,3.674215316772461,-4.397193908691406,-7.958343029022217
1772455998194936000,4.39193603515625,3.715367078781128,-4.372213840484619,-7.952999591827393
1772455998204971500,4.401971435546875,3.7397637367248535,-4.345195293426514,-7.956372261047363
1772455998225266200,4.42226611328125,3.737697124481201,-4.325254917144775,-7.968197822570801
1772455998234950000,4.431949951171875,3.6692769527435303,-4.3239970207214355,-8.000616073608398
1772455998254965000,4.451965087890625,3.687203884124756,-4.461101531982422,-7.916659355163574
1772455998264987100,4.461987060546875,3.5916380882263184,-4.484528541564941,-7.947298049926758
1772455998274976500,4.4719765625,3.3728621006011963,-4.491175651550293,-8.038877487182617
1772455998294993000,4.491992919921875,3.062424898147583,-4.490777492523193,-8.162405967712402
1772455998304997400,4.501997314453125,2.9954140186309814,-4.491706848144531,-8.186723709106445
1772455998314978800,4.511978759765625,2.834749698638916,-4.483086109161377,-8.248425483703613
1772455998325935900,4.522935791015625,2.6745448112487793,-4.469486236572266,-8.309082984924316
1772455998346611000,4.54361083984375,2.3535103797912598,-4.428798675537109,-8.427164077758789
1772455998375041800,4.572041748046875,1.903188705444336,-4.358813285827637,-8.576072692871094
1772455998405105200,4.602105224609375,1.6545727252960205,-4.198916435241699,-8.706427574157715
1772455998415103700,4.612103759765625,1.6800172328948975,-4.158140182495117,-8.721115112304688
1772455998425443300,4.622443359375,1.7379893064498901,-4.122164249420166,-8.726829528808594
1772455998435140400,4.632140380859375,1.7530179023742676,-4.10434627532959,-8.732219696044922
1772455998445161700,4.64216162109375,1.8405463695526123,-4.0757670402526855,-8.727594375610352
1772455998455132400,4.65213232421875,2.0344831943511963,-4.053661346435547,-8.69477367401123
1772455998465153000,4.662153076171875,2.1292614936828613,-4.030106544494629,-8.683021545410156
1772455998475151400,4.6721513671875,2.307903528213501,-4.0397047996521,-8.632773399353027
1772455998545272800,4.74227294921875,3.949024200439453,-4.2624921798706055,-7.899796009063721
1772455998555259000,4.7522587890625,4.189548492431641,-4.321439266204834,-7.742300987243652
1772455998565284000,4.7622841796875,4.336500644683838,-4.385910511016846,-7.624233722686768
1772455998575262500,4.772262451171875,4.437449932098389,-4.489236831665039,-7.505078315734863
1772455998585262800,4.782262939453125,4.461635589599609,-4.521584510803223,-7.4712419509887695
1772455998595239000,4.792239013671875,4.425388336181641,-4.624183177947998,-7.4298906326293945
1772455998605266200,4.80226611328125,4.374370098114014,-4.681463718414307,-7.424229621887207
1772455998635259400,4.83225927734375,4.188592910766602,-4.7816996574401855,-7.467358589172363
1772455998645910000,4.842909912109375,4.1049675941467285,-4.851362228393555,-7.468863010406494
1772455998655283200,4.852283203125,3.9054741859436035,-4.8790283203125,-7.557297706604004
1772455998666939400,4.863939453125,3.6773791313171387,-4.897263526916504,-7.6592488288879395
1772455998675348000,4.872347900390625,3.3881001472473145,-4.9079718589782715,-7.784791469573975
1772455998685358000,4.882358154296875,3.121040105819702,-4.893021583557129,-7.904926300048828
1772455998705347600,4.90234765625,2.636904001235962,-4.870724678039551,-8.092784881591797
1772455998715365600,4.91236572265625,2.329120397567749,-4.843228340148926,-8.202971458435059
1772455998725713200,4.922713134765625,2.2458348274230957,-4.832808971405029,-8.23228931427002
1772455998735380200,4.932380126953125,2.0887129306793213,-4.808021068572998,-8.287980079650879
1772455998765421000,4.962421142578125,1.786988615989685,-4.687968730926514,-8.426148414611816
1772455998775388400,4.972388427734375,1.7718974351882935,-4.67053747177124,-8.439007759094238
1772455998785415200,4.982415283203125,1.777594804763794,-4.631580352783203,-8.459256172180176
1772455998795400000,4.99239990234375,1.808917760848999,-4.589350700378418,-8.475616455078125
1772455998806046200,5.003046142578125,1.863202452659607,-4.548137664794922,-8.486067771911621
1772455998815435800,5.012435791015625,1.930274248123169,-4.511316776275635,-8.490727424621582
1772455998828341200,5.02534130859375,2.003981590270996,-4.482990264892578,-8.488655090332031
1772455998845495000,5.0424951171875,2.173696756362915,-4.454151153564453,-8.462031364440918
1772455998855488000,5.052488037109375,2.292977809906006,-4.441830158233643,-8.436989784240723
1772455998865561600,5.0625615234375,2.4420557022094727,-4.424928188323975,-8.403972625732422
1772455998875535400,5.072535400390625,2.6159701347351074,-4.401907444000244,-8.363628387451172
1772455998885561900,5.082561767578125,2.8027706146240234,-4.371598243713379,-8.318894386291504
1772455998895566300,5.09256640625,3.004444122314453,-4.334261894226074,-8.26788330078125
1772455998915585300,5.112585205078125,3.4405722618103027,-4.245569705963135,-8.142971992492676
1772455998925917000,5.1229169921875,3.5628790855407715,-4.214444160461426,-8.106464385986328
1772455998966274000,5.163274169921875,3.578991413116455,-4.179327011108398,-8.117539405822754
1772455998975667500,5.17266748046875,3.546112298965454,-4.177893161773682,-8.132691383361816
1772455998987293200,5.184293212890625,3.502455711364746,-4.1796875,-8.15066909790039
1772455998995689200,5.192689208984375,3.3929672241210938,-4.186767101287842,-8.193236351013184
1772455999005707000,5.20270703125,3.358978271484375,-4.188274383544922,-8.206460952758789
1772455999015699200,5.21269921875,3.244180202484131,-4.189521312713623,-8.251884460449219
1772455999026064600,5.223064697265625,3.0769708156585693,-4.180702209472656,-8.320117950439453
1772455999035726000,5.23272607421875,2.837576150894165,-4.172691822052002,-8.408758163452148
1772455999065793500,5.26279345703125,2.495161533355713,-4.137215614318848,-8.533931732177734
1772455999075762000,5.272761962890625,2.2984087467193604,-4.097421169281006,-8.608067512512207
1772455999085779700,5.28277978515625,2.1845099925994873,-4.06568717956543,-8.652660369873047
1772455999095763700,5.292763671875,2.1372926235198975,-4.050312042236328,-8.671639442443848
1772455999105830400,5.302830322265625,2.058675527572632,-4.01604700088501,-8.706527709960938
1772455999115798000,5.312798095703125,2.0120689868927,-3.9609642028808594,-8.74258041381836
1772455999126729700,5.323729736328125,2.021529197692871,-3.920647382736206,-8.75855827331543
1772455999135796500,5.33279638671875,2.021122932434082,-3.905596971511841,-8.765373229980469
1772455999148329000,5.345328857421875,2.068164110183716,-3.868514060974121,-8.770844459533691
1772455999185896000,5.38289599609375,2.466634511947632,-3.687714099884033,-8.74567699432373
1772455999196266200,5.393266357421875,2.7278475761413574,-3.6478302478790283,-8.684616088867188
1772455999205897000,5.40289697265625,2.7957382202148438,-3.6388792991638184,-8.666764259338379
1772455999215907600,5.412907470703125,3.029179334640503,-3.618297815322876,-8.596651077270508
1772455999226294000,5.4232939453125,3.1700832843780518,-3.6225531101226807,-8.543890953063965
1772455999235941000,5.432941162109375,3.2853200435638428,-3.646933078765869,-8.489814758300781
1772455999245982200,5.442982177734375,3.4099061489105225,-3.699812650680542,-8.417500495910645
1772455999255963000,5.452962890625,3.5063722133636475,-3.7504591941833496,-8.355226516723633
1772455999265997000,5.4629970703125,3.611494302749634,-3.7678823471069336,-8.302443504333496
1772455999307647500,5.5046474609375,3.8235960006713867,-3.792489528656006,-8.19558048248291
1772455999316004600,5.513004638671875,3.8103930950164795,-3.8000450134277344,-8.198230743408203
1772455999326335700,5.523335693359375,3.7894320487976074,-3.805199384689331,-8.205550193786621
1772455999346093600,5.543093505859375,3.618381977081299,-3.8417675495147705,-8.265501976013184
1772455999356062000,5.55306201171875,3.4721155166625977,-3.8765251636505127,-8.311881065368652
1772455999366075000,5.563074951171875,3.369741201400757,-3.8944802284240723,-8.345552444458008
1772455999386092500,5.583092529296875,3.165728807449341,-3.9177629947662354,-8.414255142211914
1772455999396075800,5.59307568359375,3.0767269134521484,-3.9216806888580322,-8.445387840270996
1772455999406082600,5.60308251953125,3.005682945251465,-3.92024564743042,-8.471595764160156
1772455999416057000,5.61305712890625,2.958483934402466,-3.9115121364593506,-8.492222785949707
1772455999426414300,5.623414306640625,2.94950008392334,-3.908907890319824,-8.496545791625977
1772455999446687200,5.643687255859375,2.9450347423553467,-3.8589603900909424,-8.520891189575195
1772455999456074500,5.653074462890625,3.0624172687530518,-3.8154726028442383,-8.499069213867188
1772455999468589300,5.66558935546875,3.1820411682128906,-3.7792274951934814,-8.471271514892578
1772455999486122800,5.683122802734375,3.1855263710021973,-3.6618924140930176,-8.521346092224121
1772455999496110000,5.693110107421875,3.4084110260009766,-3.6341629028320312,-8.4466552734375
1772455999506137900,5.703137939453125,3.5680060386657715,-3.617229700088501,-8.387811660766602
1772455999516091600,5.713091552734375,3.7416722774505615,-3.6050662994384766,-8.317075729370117
1772455999526402600,5.723402587890625,3.9323580265045166,-3.5953316688537598,-8.232892990112305
1772455999536087300,5.73308740234375,4.130434989929199,-3.5894734859466553,-8.137908935546875
1772455999546118000,5.743117919921875,4.301787376403809,-3.592167615890503,-8.047443389892578
1772455999556088000,5.753088134765625,4.643798351287842,-3.5924220085144043,-7.854936122894287
1772455999566099500,5.763099365234375,4.827372074127197,-3.603084087371826,-7.738517761230469
1772455999576088000,5.773088134765625,4.972404956817627,-3.6204423904418945,-7.637930870056152
1772455999606726700,5.8037265625,5.18049430847168,-3.7369534969329834,-7.4409708976745605
1772455999616119300,5.813119384765625,5.179225921630859,-3.7771711349487305,-7.42152214050293
1772455999628039400,5.825039306640625,5.107293605804443,-3.81188702583313,-7.453553199768066
1772455999636132900,5.8331328125,5.094967365264893,-3.8246819972991943,-7.455436706542969
1772455999646132200,5.84313232421875,4.915785312652588,-3.8639540672302246,-7.554820537567139
1772455999656110300,5.8531103515625,4.8177642822265625,-3.889134168624878,-7.6048784255981445
1772455999666155300,5.8631552734375,4.651702880859375,-3.9116013050079346,-7.69619607925415
1772455999676103400,5.873103515625,4.394540786743164,-3.940742254257202,-7.83128023147583
1772455999686105300,5.883105224609375,4.234300136566162,-3.9541468620300293,-7.912384986877441
1772455999716114700,5.91311474609375,3.8961403369903564,-3.9657280445098877,-8.078581809997559
1772455999726430700,5.9234306640625,3.832247734069824,-3.9590401649475098,-8.112353324890137
1772455999736106000,5.93310595703125,3.783597469329834,-3.9530081748962402,-8.138090133666992
1772455999756097000,5.953096923828125,3.6653974056243896,-3.873431921005249,-8.229930877685547
1772455999766710800,5.963710693359375,3.6684484481811523,-3.8530397415161133,-8.238142013549805
1772455999776104000,5.97310400390625,3.678492784500122,-3.83879017829895,-8.240312576293945
1772455999788613000,5.985613037109375,3.7087504863739014,-3.8282816410064697,-8.231635093688965
1772455999816091000,6.0130908203125,3.664518356323242,-3.8079769611358643,-8.260810852050781
1772455999826443800,6.02344384765625,3.834713935852051,-3.8127527236938477,-8.180970191955566
1772455999836096300,6.03309619140625,3.967010021209717,-3.8283629417419434,-8.1102933883667
1772455999856096000,6.053095947265625,4.276523590087891,-3.852546215057373,-7.9397501945495605
1772455999866127600,6.063127685546875,4.383045196533203,-3.8685302734375,-7.873612880706787
1772455999876103700,6.073103759765625,4.446169376373291,-3.891116142272949,-7.826952934265137
1772455999886115600,6.083115478515625,4.479761123657227,-3.9205245971679688,-7.793048858642578
1772455999896092000,6.093091796875,4.494205474853516,-3.9601128101348877,-7.764665603637695
1772455999916079600,6.11307958984375,4.531655311584473,-4.097448348999023,-7.671075344085693
1772455999927023000,6.124023193359375,4.490927696228027,-4.151098251342773,-7.6661810874938965
1772455999936090000,6.133090087890625,4.430333614349365,-4.193443775177002,-7.678382396697998
1772455999947769300,6.144769287109375,4.318754196166992,-4.242778778076172,-7.714763164520264
1772455999956102000,6.153101806640625,4.220226287841797,-4.285235404968262,-7.745762825012207
1772455999966105600,6.163105712890625,4.136189937591553,-4.32086181640625,-7.7712602615356445
1772455999976096800,6.1730966796875,3.9913930892944336,-4.351489067077637,-7.82966947555542
1772455999986137300,6.183137451171875,3.86108136177063,-4.373812675476074,-7.88239860534668
1772455999996095500,6.193095458984375,3.739499807357788,-4.3928117752075195,-7.930305004119873
1772456000016172800,6.2131728515625,3.5181188583374023,-4.423165321350098,-8.014288902282715
1772456000026478600,6.223478515625,3.3801939487457275,-4.439655780792236,-8.064375877380371
1772456000036122400,6.233122314453125,3.311673879623413,-4.441578388214111,-8.09169864654541
1772456000046122500,6.24312255859375,3.257514238357544,-4.434948444366455,-8.117280960083008
1772456000056096000,6.253095947265625,3.2221014499664307,-4.418743133544922,-8.140218734741211
1772456000066157600,6.263157470703125,3.204866409301758,-4.4074482917785645,-8.153136253356934
1772456000076115700,6.27311572265625,3.1911540031433105,-4.380223751068115,-8.173160552978516
1772456000086732500,6.283732666015625,3.2083802223205566,-4.329502105712891,-8.193418502807617
1772456000096109800,6.29310986328125,3.199186325073242,-4.3075852394104,-8.208552360534668
1772456000126458400,6.323458251953125,3.2449114322662354,-4.146055221557617,-8.27352237701416
1772456000136138200,6.33313818359375,3.3200910091400146,-4.107208728790283,-8.263063430786133
1772456000146181600,6.343181640625,3.427473545074463,-4.075569152832031,-8.234838485717773
1772456000166173700,6.363173583984375,3.764765739440918,-4.021821975708008,-8.113069534301758
1772456000176168200,6.373168212890625,3.901487350463867,-4.0215654373168945,-8.048341751098633
1772456000186219300,6.38321923828125,3.9967613220214844,-4.0328569412231445,-7.995771408081055
1772456000196181200,6.39318115234375,4.060789585113525,-4.057005405426025,-7.951169013977051
1772456000206193200,6.403193115234375,4.087228298187256,-4.089479923248291,-7.920929431915283
1772456000226531000,6.423531005859375,4.046257972717285,-4.164302825927734,-7.90295934677124
1772456000236184300,6.433184326171875,3.9940719604492188,-4.200153350830078,-7.910530090332031
1772456000246800600,6.443800537109375,3.91469144821167,-4.233704566955566,-7.932297229766846
1772456000256181200,6.45318115234375,3.824982166290283,-4.25412654876709,-7.965068340301514
1772456000267807000,6.464806884765625,3.6925437450408936,-4.261672019958496,-8.023320198059082
1772456000276193300,6.473193359375,3.6561031341552734,-4.264017581939697,-8.038745880126953
1772456000286204200,6.4832041015625,3.4738621711730957,-4.249807357788086,-8.126612663269043
1772456000296193800,6.49319384765625,3.360252618789673,-4.235092639923096,-8.18187427520752
1772456000306264300,6.503264404296875,3.2528483867645264,-4.218976020812988,-8.23344612121582
1772456000316230100,6.513230224609375,3.153625011444092,-4.202102184295654,-8.280542373657227
1772456000336259300,6.53325927734375,3.0187931060791016,-4.175320625305176,-8.344099998474121
1772456000346314500,6.543314453125,2.9454801082611084,-4.159816265106201,-8.377974510192871
1772456000356291300,6.553291259765625,2.9031565189361572,-4.148482322692871,-8.398343086242676
1772456000366304500,6.563304443359375,2.833495616912842,-4.130371570587158,-8.430998802185059
1772456000376290000,6.5732900390625,2.7958321571350098,-4.115224361419678,-8.450956344604492
1772456000386343400,6.583343505859375,2.7918972969055176,-4.106912136077881,-8.456297874450684
1772456000396315600,6.593315673828125,2.808053731918335,-4.10173225402832,-8.453463554382324
1772456000406952000,6.603951904296875,2.777811050415039,-4.088776588439941,-8.469715118408203
1772456000416361500,6.613361572265625,2.821719169616699,-4.099820137023926,-8.44983959197998
1772456000436749600,6.63374951171875,2.935433864593506,-4.172239303588867,-8.375325202941895
1772456000446414300,6.643414306640625,3.0646445751190186,-4.203439712524414,-8.31320858001709
1772456000456411100,6.6534111328125,3.2292566299438477,-4.226057529449463,-8.239096641540527
1772456000466440000,6.66343994140625,3.4185564517974854,-4.239665508270264,-8.155309677124023
1772456000476403700,6.67340380859375,3.52294921875,-4.248000144958496,-8.106399536132812
1772456000486429200,6.68342919921875,3.7670352458953857,-4.2632269859313965,-7.987786293029785
1772456000506485200,6.7034853515625,3.9542224407196045,-4.286660671234131,-7.884101390838623
1772456000516455400,6.713455322265625,4.055551052093506,-4.3120622634887695,-7.81850528717041
1772456000546749200,6.743749267578125,4.098970413208008,-4.354315757751465,-7.772308349609375
1772456000556495000,6.7534951171875,4.056836128234863,-4.355152606964111,-7.793916702270508
1772456000567119400,6.764119384765625,4.063790321350098,-4.376279354095459,-7.7784423828125
1772456000576503600,6.773503662109375,3.9708433151245117,-4.381153583526611,-7.823573589324951
1772456000588172300,6.78517236328125,3.8730874061584473,-4.406286239624023,-7.858384132385254
1772456000596526000,6.793526123046875,3.8260133266448975,-4.434533596038818,-7.865553379058838
1772456000606533000,6.803533203125,3.683072805404663,-4.433122634887695,-7.934279441833496
1772456000616514000,6.81351416015625,3.473391056060791,-4.415162563323975,-8.038176536560059
1772456000626862800,6.82386279296875,3.328143835067749,-4.401985168457031,-8.106563568115234
1772456000666553300,6.86355322265625,2.915187120437622,-4.3669843673706055,-8.282604217529297
1772456000676522200,6.873522216796875,2.8080973625183105,-4.352627277374268,-8.327042579650879
1772456000686545700,6.883545654296875,2.7812340259552,-4.336233139038086,-8.344592094421387
1772456000696545800,6.8935458984375,2.786638021469116,-4.316020488739014,-8.353263854980469
1772456000706583000,6.9035830078125,2.7847423553466797,-4.304042339324951,-8.360072135925293
1772456000716551700,6.9135517578125,2.8756203651428223,-4.272132396697998,-8.345662117004395
1772456000727488300,6.92448828125,2.952204942703247,-4.246219635009766,-8.332136154174805
1772456000736581000,6.9335810546875,2.880415201187134,-4.206268310546875,-8.37740421295166
1772456000749119000,6.946118896484375,2.97733998298645,-4.189077854156494,-8.352094650268555
1772456000756631600,6.953631591796875,3.106186866760254,-4.1752848625183105,-8.311979293823242
1772456000766646800,6.963646728515625,3.253676176071167,-4.160454273223877,-8.262845993041992
1772456000776635100,6.97363525390625,3.515286922454834,-4.129167079925537,-8.17087173461914
1772456000786671900,6.983671875,3.7442028522491455,-4.103246212005615,-8.08175277709961
1772456000796636700,6.99363671875,3.9342994689941406,-4.084333419799805,-8.000619888305664
1772456000806646800,7.003646728515625,4.084738254547119,-4.08237886428833,-7.925873279571533
1772456000816657200,7.0136572265625,4.19744348526001,-4.093384265899658,-7.861049175262451
1772456000826992400,7.023992431640625,4.275879383087158,-4.111706256866455,-7.809040069580078
1772456000836654300,7.033654296875,4.324653625488281,-4.133543491363525,-7.770558834075928
1772456000856653300,7.0536533203125,4.389695167541504,-4.174294471740723,-7.71208381652832
1772456000866688500,7.0636884765625,4.377923965454102,-4.215907573699951,-7.696122169494629
1772456000876652000,7.073652099609375,4.415530681610107,-4.228595733642578,-7.6676249504089355
1772456000887279400,7.084279296875,4.3003435134887695,-4.262943267822266,-7.713932514190674
1772456000908283000,7.105282958984375,4.071658611297607,-4.31252384185791,-7.809872627258301
1772456000927011300,7.12401123046875,3.8873770236968994,-4.3439249992370605,-7.886000156402588
1772456000936701700,7.13370166015625,3.6166067123413086,-4.383508682250977,-7.992209434509277
1772456000946734300,7.143734375,3.446655511856079,-4.412716388702393,-8.051017761230469
1772456000966711600,7.163711669921875,3.1389310359954834,-4.463779926300049,-8.148138999938965
1772456000976707600,7.17370751953125,3.0201077461242676,-4.476573467254639,-8.185940742492676
1772456000986755000,7.183755126953125,2.9719536304473877,-4.479559421539307,-8.201916694641113
1772456000996713200,7.193713134765625,2.879467487335205,-4.468332767486572,-8.240938186645508
1772456001006719500,7.203719482421875,2.857553720474243,-4.461272239685059,-8.252384185791016
1772456001016710100,7.213710205078125,2.861872434616089,-4.425652027130127,-8.270048141479492
1772456001027040300,7.224040283203125,2.8902597427368164,-4.396289348602295,-8.275834083557129
1772456001036702200,7.2337021484375,2.8915293216705322,-4.378395080566406,-8.284873962402344
1772456001069220400,7.266220458984375,3.0529356002807617,-4.246730804443359,-8.295495986938477
1772456001076735200,7.2737353515625,3.040132522583008,-4.237030029296875,-8.305153846740723
1772456001086757400,7.28375732421875,3.1496057510375977,-4.242669105529785,-8.261363983154297
1772456001096758500,7.293758544921875,3.3575072288513184,-4.248982906341553,-8.175798416137695
1772456001106793000,7.30379296875,3.505887508392334,-4.256070137023926,-8.109562873840332
1772456001116758000,7.313758056640625,3.694167375564575,-4.267977714538574,-8.019221305847168
1772456001127110000,7.32410986328125,3.877814769744873,-4.258247375488281,-7.937270641326904
1772456001136807200,7.33380712890625,4.035501480102539,-4.24656867980957,-7.864590167999268
1772456001146813000,7.34381298828125,4.1663007736206055,-4.242641448974609,-7.7982258796691895
1772456001156768000,7.35376806640625,4.238662242889404,-4.242961406707764,-7.758956432342529
1772456001207368400,7.404368408203125,4.310408592224121,-4.367342948913574,-7.649645805358887
1772456001216786200,7.4137861328125,4.136634826660156,-4.390909671783447,-7.731659889221191
1772456001228770800,7.425770751953125,4.0806732177734375,-4.393948554992676,-7.759620666503906
1772456001236826400,7.433826416015625,3.841824531555176,-4.4153337478637695,-7.868646621704102
1772456001246832000,7.44383203125,3.7642526626586914,-4.41746187210083,-7.904860019683838
1772456001256818000,7.45381787109375,3.4970345497131348,-4.438860893249512,-8.014839172363281
1772456001266844700,7.4638447265625,3.323174238204956,-4.449833869934082,-8.082442283630371
1772456001276830200,7.473830322265625,3.1560306549072266,-4.460765838623047,-8.14318561553955
1772456001296842500,7.493842529296875,2.9279110431671143,-4.472738742828369,-8.221455574035645
1772456001306877400,7.50387744140625,2.787496566772461,-4.474694728851318,-8.269059181213379
1772456001327179300,7.52417919921875,2.575530529022217,-4.441991329193115,-8.354984283447266
1772456001346947300,7.543947265625,2.491445779800415,-4.383711814880371,-8.411072731018066
1772456001356915700,7.553915771484375,2.5121359825134277,-4.367167949676514,-8.41352367401123
1772456001367545300,7.56454541015625,2.5170211791992188,-4.357400417327881,-8.417128562927246
1772456001376945700,7.573945556640625,2.5658071041107178,-4.347519874572754,-8.407501220703125
1772456001396968200,7.59396826171875,2.7747435569763184,-4.337417125701904,-8.346136093139648
1772456001406981000,7.603981201171875,2.861726760864258,-4.323683738708496,-8.323861122131348
1772456001417007600,7.614007568359375,3.016184091567993,-4.336246013641357,-8.262567520141602
1772456001427348200,7.62434814453125,3.2004175186157227,-4.355007648468018,-8.18301010131836
1772456001437022200,7.634022216796875,3.3089146614074707,-4.386688709259033,-8.122712135314941
1772456001447021000,7.64402099609375,3.6274850368499756,-4.3871750831604,-7.985264778137207
1772456001457030100,7.654030029296875,3.829712390899658,-4.378870010375977,-7.894883155822754
1772456001467074300,7.66407421875,3.985792398452759,-4.375913143157959,-7.818902969360352
1772456001477041700,7.674041748046875,4.075311660766602,-4.37893009185791,-7.770919322967529
1772456001497083400,7.69408349609375,4.1604905128479,-4.462643623352051,-7.6775994300842285
1772456001507115000,7.704114990234375,4.108123779296875,-4.490657329559326,-7.689455032348633
1772456001517089800,7.71408984375,4.084836483001709,-4.500022888183594,-7.696382522583008
1772456001528018000,7.725017822265625,3.885193109512329,-4.52003288269043,-7.787487030029297
1772456001537093600,7.73409375,3.7636537551879883,-4.519747734069824,-7.847113609313965
1772456001548695600,7.745695556640625,3.5947248935699463,-4.511002540588379,-7.930900573730469
1772456001557075700,7.75407568359375,3.551717519760132,-4.499885082244873,-7.956552028656006
1772456001567086000,7.764086181640625,3.292248010635376,-4.471731662750244,-8.083013534545898
1772456001577072000,7.774072021484375,3.1207051277160645,-4.449220657348633,-8.163087844848633
1772456001607079200,7.8040791015625,2.7370781898498535,-4.401346206665039,-8.325078964233398
1772456001617099000,7.81409912109375,2.5956578254699707,-4.353654861450195,-8.395156860351562
1772456001627441200,7.824441162109375,2.5638153553009033,-4.311054229736328,-8.42686653137207
1772456001637091300,7.83409130859375,2.569458246231079,-4.2684645652771,-8.44680404663086
1772456001647093800,7.84409375,2.60383939743042,-4.22425651550293,-8.458490371704102
1772456001657092400,7.85409228515625,2.6616716384887695,-4.181736469268799,-8.461617469787598
1772456001667114500,7.864114501953125,2.73679780960083,-4.143012046813965,-8.456700325012207
1772456001677069300,7.8740693359375,2.7588820457458496,-4.121375560760498,-8.460095405578613
1772456001687684400,7.884684326171875,2.922668218612671,-4.081576824188232,-8.424317359924316
1772456001717105400,7.91410546875,3.16862416267395,-3.9980075359344482,-8.375330924987793
1772456001737119200,7.934119140625,3.475937843322754,-4.01655912399292,-8.243513107299805
1772456001747161000,7.9441611328125,3.6858725547790527,-4.04199743270874,-8.139225006103516
1772456001757142800,7.954142822265625,3.927532434463501,-4.056177616119385,-8.01824951171875
1772456001767162400,7.964162353515625,4.162127494812012,-4.054333686828613,-7.899965286254883
1772456001777161500,7.974161376953125,4.372117042541504,-4.048803806304932,-7.788593769073486
1772456001787199200,7.98419921875,4.468689918518066,-4.045530796051025,-7.735301494598389
1772456001797161700,7.99416162109375,4.685765266418457,-4.055120468139648,-7.6006574630737305
1772456001817170400,8.01417041015625,4.8386383056640625,-4.090450286865234,-7.4850640296936035
1772456001827512600,8.0245126953125,4.86486291885376,-4.144079208374023,-7.438420295715332
1772456001837173000,8.034173095703125,4.852256774902344,-4.174620151519775,-7.429572582244873
1772456001847796200,8.044796142578125,4.810494899749756,-4.201247215270996,-7.441710948944092
1772456001857206000,8.0542060546875,4.76054048538208,-4.223855972290039,-7.461012840270996
1772456001868879000,8.065879150390625,4.67891263961792,-4.257986545562744,-7.49317741394043
1772456001877219600,8.074219482421874,4.58486270904541,-4.281599998474121,-7.537727355957031
1772456001887237400,8.0842373046875,4.433516502380371,-4.305313587188721,-7.614367485046387
1772456001897235500,8.0942353515625,4.2732415199279785,-4.322953701019287,-7.695575714111328
1772456001907270100,8.104270263671875,4.196007251739502,-4.329087257385254,-7.7345290184021
1772456001927566000,8.124566162109375,3.818419933319092,-4.371823310852051,-7.9042534828186035
1772456001937258500,8.134258544921876,3.701188325881958,-4.382062911987305,-7.954188823699951
1772456001947318500,8.144318603515625,3.602166175842285,-4.385707378387451,-7.997522354125977
1772456001957289700,8.154289794921874,3.5307183265686035,-4.379639625549316,-8.032631874084473
1772456001977315600,8.174315673828126,3.4735512733459473,-4.353338718414307,-8.071759223937988
1772456001997346300,8.19434619140625,3.5395939350128174,-4.271744728088379,-8.086647987365723
1772456002007984600,8.204984619140625,3.5977067947387695,-4.2338690757751465,-8.080918312072754
1772456002030257700,8.227257568359375,3.5427117347717285,-4.097059726715088,-8.175187110900879
1772456002037699000,8.234698974609374,3.683743476867676,-4.081335544586182,-8.120538711547852
1772456002047495700,8.24449560546875,3.7859904766082764,-4.0806379318237305,-8.07372760772705
1772456002057493800,8.25449365234375,3.9139177799224854,-4.081502437591553,-8.012053489685059
1772456002067531000,8.264531005859375,4.070600509643555,-4.079850196838379,-7.934445381164551
1772456002077507800,8.2745078125,4.258131504058838,-4.069181442260742,-7.84094762802124
1772456002087533600,8.284533447265625,4.505740642547607,-4.045064449310303,-7.714022159576416
1772456002097532200,8.2945322265625,4.714241981506348,-4.0153326988220215,-7.604170322418213
1772456002107572700,8.30457275390625,4.891658782958984,-3.9938089847564697,-7.502769470214844
1772456002117542100,8.314542236328125,4.979887008666992,-3.9863717555999756,-7.448487758636475
1772456002137546200,8.334546142578125,5.194870948791504,-4.028520584106445,-7.277000904083252
1772456002147584000,8.344583984375,5.205212116241455,-4.062682151794434,-7.250570774078369
1772456002157545700,8.354545654296874,5.211023330688477,-4.084884166717529,-7.233903884887695
1772456002168162800,8.365162841796876,5.176812171936035,-4.116608619689941,-7.240478515625
1772456002177553000,8.374552978515625,5.089550018310547,-4.152352333068848,-7.281815528869629
1772456002189186300,8.386186279296876,5.013734817504883,-4.17377233505249,-7.322055816650391
1772456002197575000,8.394574951171874,4.999927043914795,-4.180232524871826,-7.327809810638428
1772456002207583700,8.404583740234376,4.809001445770264,-4.180835723876953,-7.454161167144775
1772456002217574700,8.41457470703125,4.663315773010254,-4.182652950286865,-7.545150279998779
1772456002227916000,8.424916015625,4.5548810958862305,-4.180922985076904,-7.612051963806152
1772456002247605000,8.44460498046875,4.106191635131836,-4.186856746673584,-7.860013961791992
1772456002277603800,8.474603759765625,3.7330164909362793,-4.203298091888428,-8.035375595092773
1772456002297633800,8.4946337890625,3.531752586364746,-4.20050573348999,-8.127290725708008
1772456002307671000,8.504671142578125,3.457127094268799,-4.174124240875244,-8.172842025756836
1772456002317638400,8.514638427734376,3.439939498901367,-4.15251350402832,-8.191083908081055
1772456002328568800,8.52556884765625,3.427746295928955,-4.13984489440918,-8.20259952545166
1772456002337670000,8.534669921875,3.43951153755188,-4.116257190704346,-8.209541320800781
1772456002350185700,8.547185791015625,3.5139153003692627,-4.10445499420166,-8.183902740478516
1772456002367712300,8.564712158203125,3.452268123626709,-4.07421350479126,-8.225146293640137
1772456002377712400,8.57471240234375,3.5956811904907227,-4.094928741455078,-8.153098106384277
1772456002387749000,8.5847490234375,3.709102153778076,-4.1108198165893555,-8.094079971313477
1772456002407744800,8.604744873046876,4.021894454956055,-4.167941570281982,-7.913473129272461
1772456002428125700,8.625125732421875,4.377429962158203,-4.184333801269531,-7.713613033294678
1772456002437794800,8.634794921875,4.51170015335083,-4.19473934173584,-7.63014554977417
1772456002447817200,8.644817138671876,4.58272123336792,-4.202167987823486,-7.583590984344482
1772456002457819400,8.6548193359375,4.670495510101318,-4.229709148406982,-7.514414310455322
1772456002477851100,8.67485107421875,4.712880611419678,-4.315349102020264,-7.438879013061523
1772456002488480500,8.68548046875,4.683903694152832,-4.350305557250977,-7.4368181228637695
1772456002497881600,8.694881591796875,4.686863422393799,-4.368056774139404,-7.4245381355285645
1772456002509548000,8.706548095703125,4.553570747375488,-4.421325206756592,-7.4757771492004395
1772456002517908000,8.714907958984375,4.4854536056518555,-4.45486307144165,-7.497020244598389
1772456002528253200,8.725253173828126,4.365636348724365,-4.487358093261719,-7.548192977905273
1772456002537958700,8.734958740234376,4.2299370765686035,-4.511671543121338,-7.610705375671387
1772456002548000500,8.74500048828125,4.078217029571533,-4.524604320526123,-7.685471534729004
1772456002557973000,8.754972900390625,4.008806228637695,-4.528232574462891,-7.719779014587402
1772456002567999500,8.76499951171875,3.8594272136688232,-4.534695625305176,-7.791775226593018
1772456002598035200,8.79503515625,3.4170172214508057,-4.539407730102539,-7.993006706237793
1772456002608056300,8.805056396484375,3.368846893310547,-4.53693962097168,-8.014826774597168
1772456002618049300,8.81504931640625,3.289470911026001,-4.522972106933594,-8.055586814880371
1772456002628406000,8.825406005859374,3.237398386001587,-4.497567176818848,-8.090829849243164
1772456002638072800,8.83507275390625,3.220088005065918,-4.448338508605957,-8.124881744384766
1772456002648703000,8.845702880859376,3.2362899780273438,-4.412808895111084,-8.137810707092285
1772456002658093000,8.855093017578126,3.2619035243988037,-4.379602909088135,-8.145517349243164
1772456002718183200,8.91518310546875,3.7110483646392822,-4.272571563720703,-8.00897216796875
1772456002728527400,8.92552734375,3.8617000579833984,-4.276289939880371,-7.935427665710449
1772456002738221300,8.93522119140625,3.9420926570892334,-4.286133289337158,-7.890458583831787
1772456002748269300,8.945269287109374,4.1674933433532715,-4.28328275680542,-7.775338172912598
1772456002758246400,8.955246337890625,4.347457408905029,-4.276623249053955,-7.679876804351807
1772456002768280600,8.965280517578124,4.446984767913818,-4.280099868774414,-7.620726585388184
1772456002788326700,8.98532666015625,4.643038749694824,-4.313002586364746,-7.484023571014404
1772456002818353400,9.015353515625,4.669930458068848,-4.368250846862793,-7.43508768081665
1772456002830282500,9.027282470703126,4.607957363128662,-4.3686933517456055,-7.473395347595215
1772456002838402800,9.03540283203125,4.5510663986206055,-4.3684000968933105,-7.508345603942871
1772456002848436500,9.0454365234375,4.52280330657959,-4.370573997497559,-7.524143695831299
1772456002858447600,9.055447509765624,4.332865238189697,-4.374712944030762,-7.6327290534973145
1772456002868517000,9.06551708984375,4.271273136138916,-4.382610321044922,-7.6628546714782715
1772456002878503400,9.07550341796875,4.1128129959106445,-4.3876953125,-7.746179580688477
1772456002888531200,9.08553125,3.849440336227417,-4.383378982543945,-7.882778644561768
1772456002898539000,9.0955390625,3.7650160789489746,-4.379545211791992,-7.9255690574646
1772456002918584600,9.11558447265625,3.41644287109375,-4.364100933074951,-8.090299606323242
1772456002928922400,9.12592236328125,3.2506606578826904,-4.3661112785339355,-8.157246589660645
1772456002938617600,9.13561767578125,3.060530424118042,-4.349211692810059,-8.239412307739258
1772456002948662300,9.145662353515625,3.011976480484009,-4.340634346008301,-8.261796951293945
1772456002958648300,9.1556484375,2.9418797492980957,-4.2893781661987305,-8.3136625289917
1772456002978681900,9.175681884765625,2.9509780406951904,-4.227876663208008,-8.34189224243164
1772456002988728000,9.18572802734375,2.99076509475708,-4.2040510177612305,-8.339764595031738
1772456002998709000,9.195708984375,2.989131212234497,-4.18688440322876,-8.348979949951172
1772456003008741000,9.2057412109375,3.0376498699188232,-4.168529510498047,-8.340649604797363
1772456003048802800,9.245802734375,3.398587703704834,-4.173028945922852,-8.197914123535156
1772456003078822700,9.27582275390625,4.022423267364502,-4.188169956207275,-7.902514457702637
1772456003088858400,9.2858583984375,4.107597351074219,-4.185429573059082,-7.860037803649902
1772456003118892800,9.315892822265624,4.43154764175415,-4.205036640167236,-7.671339511871338
1772456003148980000,9.34597998046875,4.44862174987793,-4.247800350189209,-7.637824535369873
1772456003158989600,9.355989501953125,4.404478073120117,-4.254738807678223,-7.659514904022217
1772456003169040000,9.366039794921875,4.33873176574707,-4.257358074188232,-7.695498466491699
1772456003179027000,9.37602685546875,4.255428314208984,-4.258602142333984,-7.741190433502197
1772456003189060600,9.386060546875,4.148251533508301,-4.264436721801758,-7.79595947265625
1772456003199367000,9.396366943359375,3.9203743934631348,-4.249086380004883,-7.9212565422058105
1772456003219130600,9.416130615234374,3.5489516258239746,-4.2257561683654785,-8.106684684753418
1772456003259233000,9.45623291015625,2.8701884746551514,-4.192821025848389,-8.387648582458496
1772456003269280000,9.466280029296875,2.758209228515625,-4.176929950714111,-8.433028221130371
1772456003279265300,9.476265380859376,2.7119898796081543,-4.1687164306640625,-8.452059745788574
1772456003289339000,9.4863388671875,2.635490655899048,-4.127167224884033,-8.496533393859863
1772456003299323000,9.496322998046875,2.6141273975372314,-4.113536834716797,-8.509733200073242
1772456003309365500,9.506365478515624,2.603692054748535,-4.093954563140869,-8.522366523742676
1772456003339423000,9.536423095703125,2.745046854019165,-4.007953643798828,-8.51888656616211
1772456003369518000,9.56651806640625,2.983064651489258,-3.981212615966797,-8.451133728027344
1772456003389533200,9.586533203125,3.269970417022705,-4.0089240074157715,-8.331039428710938
1772456003399521000,9.59652099609375,3.4650514125823975,-4.029366493225098,-8.24184513092041
1772456003409598700,9.6065986328125,3.6704654693603516,-4.022623538970947,-8.155769348144531
1772456003419576600,9.61657666015625,3.87260365486145,-4.004145622253418,-8.070944786071777
1772456003429938200,9.626938232421875,4.061682224273682,-3.983698606491089,-7.987695693969727
1772456003439613400,9.636613525390626,4.1614089012146,-3.9671168327331543,-7.944498538970947
1772456003469724700,9.666724609375,4.423675537109375,-3.988511562347412,-7.79058837890625
1772456003479711700,9.676711669921875,4.4386305809021,-3.9947760105133057,-7.778863430023193
1772456003489783000,9.686782958984375,4.362995147705078,-4.015285015106201,-7.8110270500183105
1772456003499756500,9.696756591796875,4.34931755065918,-4.020296096801758,-7.816076755523682
1772456003509798000,9.7067978515625,4.272059440612793,-4.027245998382568,-7.855010986328125
1772456003519780400,9.7167802734375,4.1096367835998535,-4.02425479888916,-7.9427103996276855
1772456003530152000,9.72715185546875,4.0669450759887695,-4.019184112548828,-7.9672136306762695
1772456003569936100,9.76693603515625,3.337402820587158,-3.9491794109344482,-8.332834243774414
1772456003579912000,9.776911865234375,3.2459676265716553,-3.9381299018859863,-8.374079704284668
1772456003589961500,9.78696142578125,3.066476583480835,-3.934500217437744,-8.44315242767334
1772456003610024200,9.807024169921876,2.713263511657715,-3.904128074645996,-8.577085494995117
1772456003620030000,9.817030029296875,2.62902569770813,-3.876837730407715,-8.615609169006348
1772456003630390800,9.827390869140626,2.592953681945801,-3.8632750511169434,-8.632616996765137
1772456003640092000,9.837091796875,2.554234743118286,-3.8325064182281494,-8.65783977508545
1772456003670174000,9.867174072265625,2.5775229930877686,-3.7617239952087402,-8.681946754455566
1772456003690243600,9.88724365234375,2.6619553565979004,-3.739449977874756,-8.666077613830566
1772456003700232700,9.897232666015626,2.7064433097839355,-3.725680351257324,-8.658225059509277
1772456003710271000,9.90727099609375,2.8582370281219482,-3.7328124046325684,-8.606217384338379
1772456003740344800,9.9373447265625,3.2180230617523193,-3.762301206588745,-8.46521282196045
1772456003750385700,9.9473857421875,3.4507408142089844,-3.755122184753418,-8.376267433166504
1772456003770457300,9.967457275390625,3.920557975769043,-3.714052677154541,-8.185684204101562
1772456003780458500,9.97745849609375,4.0688347816467285,-3.7100884914398193,-8.114814758300781
1772456003790489300,9.9874892578125,4.176640033721924,-3.7183847427368164,-8.056034088134766
1772456003800493800,9.997493896484375,4.232762813568115,-3.7316157817840576,-8.02054500579834
1772456003810543000,10.007543212890624,4.252171993255615,-3.742311716079712,-8.005281448364258
1772456003820523500,10.0175234375,4.242156982421875,-3.7475831508636475,-8.00812816619873
1772456003830865000,10.027864990234375,4.200921535491943,-3.7419204711914062,-8.032477378845215
1772456003840560000,10.03756005859375,4.139767646789551,-3.7264010906219482,-8.0713472366333
1772456003850611500,10.047611572265625,4.055391311645508,-3.7064995765686035,-8.12317943572998
1772456003860598800,10.057598876953126,4.045746326446533,-3.6848948001861572,-8.137805938720703
1772456003880631800,10.0776318359375,3.6488428115844727,-3.6209328174591064,-8.351359367370605
1772456003890679300,10.08767919921875,3.5616111755371094,-3.606060266494751,-8.39533519744873
1772456003900662000,10.097662109375,3.3709816932678223,-3.5843162536621094,-8.482897758483887
1772456003910690300,10.107690185546875,3.071413516998291,-3.565462589263916,-8.603736877441406
1772456003920684800,10.117684814453124,2.8804357051849365,-3.5577304363250732,-8.67271900177002
1772456003931050500,10.128050537109376,2.6990842819213867,-3.5479438304901123,-8.73483943939209
1772456003940725000,10.13772509765625,2.556820869445801,-3.5278878211975098,-8.785616874694824
1772456003950746600,10.14774658203125,2.4453766345977783,-3.4953112602233887,-8.830252647399902
1772456003960739800,10.15773974609375,2.372147798538208,-3.455545663833618,-8.865806579589844
1772456003980781300,10.17778125,2.347355604171753,-3.368621587753296,-8.905769348144531
1772456003990802200,10.18780224609375,2.3732666969299316,-3.329146146774292,-8.913742065429688
1772456004000793000,10.19779296875,2.418102264404297,-3.294905424118042,-8.914413452148438
1772456004010836700,10.207836669921875,2.4797861576080322,-3.264662981033325,-8.90859317779541
1772456004020852500,10.2178525390625,2.5517125129699707,-3.238769769668579,-8.897726058959961
1772456004031186000,10.22818603515625,2.551175594329834,-3.212761402130127,-8.907303810119629
1772456004040866300,10.2378662109375,2.639904260635376,-3.1656904220581055,-8.898297309875488
1772456004050912300,10.247912353515625,2.6527457237243652,-3.147244453430176,-8.901021957397461
1772456004060885200,10.25788525390625,2.78489089012146,-3.1594600677490234,-8.856217384338379
1772456004070909700,10.26790966796875,3.031545639038086,-3.1837756633758545,-8.766054153442383
1772456004100917500,10.29791748046875,3.578763961791992,-3.2070810794830322,-8.548537254333496
1772456004110934800,10.307934814453125,3.7393319606781006,-3.1964735984802246,-8.48353385925293
1772456004120927500,10.317927490234375,3.810945510864258,-3.191495180130005,-8.453487396240234
1772456004131303000,10.328302978515625,3.963573455810547,-3.1954233646392822,-8.381511688232422
1772456004140976600,10.3379765625,4.010900020599365,-3.206475019454956,-8.354734420776367
1772456004150977300,10.347977294921876,4.032077789306641,-3.213381052017212,-8.341877937316895
1772456004160967200,10.35796728515625,3.9860622882843018,-3.2362043857574463,-8.355156898498535
1772456004171024600,10.368024658203124,3.927560567855835,-3.2479851245880127,-8.378260612487793
1772456004201035800,10.398035888671876,3.617138624191284,-3.247598886489868,-8.51702880859375
1772456004211092000,10.408092041015625,3.5536627769470215,-3.2385122776031494,-8.547158241271973
1772456004221075000,10.418074951171874,3.373105525970459,-3.2082767486572266,-8.631311416625977
1772456004231403300,10.4284033203125,3.188561201095581,-3.178264856338501,-8.71218204498291
1772456004241081000,10.4380810546875,2.909963369369507,-3.148026466369629,-8.820001602172852
1772456004251129900,10.4481298828125,2.720393180847168,-3.1335370540618896,-8.885427474975586
1772456004261118000,10.458117919921875,2.62965989112854,-3.127795934677124,-8.914716720581055
1772456004271136800,10.46813671875,2.4748547077178955,-3.121429920196533,-8.96114730834961
1772456004281150500,10.478150390625,2.292081594467163,-3.0958168506622314,-9.018463134765625
1772456004311187700,10.508187744140624,2.136847496032715,-3.0272462368011475,-9.07965087890625
1772456004321166800,10.518166748046875,2.125779390335083,-3.0158653259277344,-9.086033821105957
1772456004332134000,10.5291337890625,2.1397454738616943,-2.9964983463287354,-9.089162826538086
1772456004341216500,10.538216552734376,2.2147209644317627,-2.983875036239624,-9.075345039367676
1772456004352870400,10.549870361328125,2.3005142211914062,-2.9850668907165527,-9.053585052490234
1772456004361220000,10.55822021484375,2.365938425064087,-2.9874017238616943,-9.035937309265137
1772456004371249000,10.568248779296875,2.44647216796875,-2.9940426349639893,-9.012262344360352
1772456004381204000,10.578203857421874,2.512343406677246,-3.001215934753418,-8.991732597351074
1772456004391223800,10.588223876953125,2.659057378768921,-3.0379180908203125,-8.937049865722656
1772456004421225700,10.618225830078124,3.2414655685424805,-3.1562130451202393,-8.700668334960938
1772456004431569200,10.628569091796875,3.4566755294799805,-3.1682424545288086,-8.613015174865723
1772456004441242000,10.6382421875,3.63936710357666,-3.171992778778076,-8.536032676696777
1772456004451275500,10.648275634765625,3.8039143085479736,-3.1776726245880127,-8.461857795715332
1772456004461232400,10.658232421875,3.938119888305664,-3.188854455947876,-8.395999908447266
1772456004471258400,10.66825830078125,4.035055160522461,-3.2089171409606934,-8.342158317565918
1772456004481225200,10.67822509765625,4.079371929168701,-3.217487335205078,-8.317264556884766
1772456004491890200,10.68889013671875,4.102160453796387,-3.271383762359619,-8.2849702835083
1772456004501579000,10.6985791015625,4.071651935577393,-3.3002257347106934,-8.288579940795898
1772456004521279200,10.718279296875,3.9287703037261963,-3.3495066165924072,-8.337623596191406
1772456004531638000,10.728637939453124,3.898911237716675,-3.3592326641082764,-8.347721099853516
1772456004541279500,10.738279541015626,3.7132368087768555,-3.387650966644287,-8.420574188232422
1772456004551324700,10.74832470703125,3.664095878601074,-3.3931446075439453,-8.43986701965332
1772456004561296400,10.75829638671875,3.4189436435699463,-3.4180426597595215,-8.532186508178711
1772456004571355400,10.76835546875,3.2404041290283203,-3.4367635250091553,-8.594115257263184
1772456004581309400,10.778309326171875,3.149045944213867,-3.443993091583252,-8.625126838684082
1772456004591334700,10.788334716796875,2.854534864425659,-3.4804677963256836,-8.712541580200195
1772456004601301800,10.7983017578125,2.6781671047210693,-3.4972686767578125,-8.761673927307129
1772456004611341600,10.808341552734374,2.534633159637451,-3.5032591819763184,-8.801885604858398
1772456004631623700,10.828623779296874,2.37101149559021,-3.491124153137207,-8.852161407470703
1772456004641284000,10.8382841796875,2.3575785160064697,-3.4822328090667725,-8.859249114990234
1772456004651954200,10.8489541015625,2.3778269290924072,-3.4742298126220703,-8.856978416442871
1772456004661300200,10.85830029296875,2.416872978210449,-3.4707224369049072,-8.84778118133545
1772456004672962300,10.86996240234375,2.4952070713043213,-3.4745426177978516,-8.824503898620605
1772456004681298000,10.8782978515625,2.5499277114868164,-3.4758899211883545,-8.808318138122559
1772456004691345000,10.888344970703125,2.480727195739746,-3.4311912059783936,-8.845525741577148
1772456004701316400,10.89831640625,2.684230089187622,-3.484187126159668,-8.765028953552246
1772456004711330600,10.90833056640625,2.8420488834381104,-3.533500909805298,-8.695259094238281
1772456004721282600,10.918282470703126,2.906644821166992,-3.5570003986358643,-8.66426944732666
1772456004741273300,10.9382734375,3.309440851211548,-3.701817035675049,-8.45662784576416
1772456004751302000,10.948302001953126,3.6583971977233887,-3.742399215698242,-8.293428421020508
1772456004761264400,10.958264404296875,3.8702566623687744,-3.745147466659546,-8.19544792175293
1772456004771307000,10.96830712890625,4.0466413497924805,-3.744281053543091,-8.11020565032959
1772456004781253400,10.97825341796875,4.177187919616699,-3.7515838146209717,-8.040343284606934
1772456004791288600,10.98828857421875,4.261083602905273,-3.772228240966797,-7.986478805541992
1772456004801251600,10.99825146484375,4.293378829956055,-3.8035523891448975,-7.954262733459473
1772456004811905800,11.00890576171875,4.274461269378662,-3.8388168811798096,-7.947505950927734
1772456004851341300,11.04834130859375,3.8295648097991943,-3.911855459213257,-8.136473655700684
1772456004861289500,11.05828955078125,3.641324758529663,-3.929750680923462,-8.213903427124023
1772456004871312000,11.068311767578125,3.4371161460876465,-3.94527530670166,-8.294059753417969
1772456004881279200,11.078279296875,3.3409042358398438,-3.9572620391845703,-8.327595710754395
1772456004891319600,11.088319580078124,2.9860353469848633,-3.981396198272705,-8.44999885559082
1772456004901258800,11.0982587890625,2.7153093814849854,-4.0071539878845215,-8.528787612915039
1772456004911277300,11.10827734375,2.5051112174987793,-4.040818214416504,-8.577098846435547
1772456004921240600,11.118240478515625,2.3255202770233154,-4.068918228149414,-8.614303588867188
1772456004951281400,11.148281494140624,2.068632125854492,-4.097352504730225,-8.666190147399902
1772456004961246700,11.158246826171874,2.0653910636901855,-4.097133636474609,-8.667067527770996
1772456004971900400,11.168900390625,2.0987651348114014,-4.09624719619751,-8.659466743469238
1772456004981236500,11.178236572265625,2.1436023712158203,-4.097451210021973,-8.647905349731445
1772456004992861200,11.189861083984376,2.2186572551727295,-4.1027398109436035,-8.62644100189209
1772456005001247200,11.198247314453125,2.259084463119507,-4.104803085327148,-8.614958763122559
1772456005011280400,11.2082802734375,2.2850687503814697,-4.108550071716309,-8.606316566467285
1772456005021227500,11.2182275390625,2.372659206390381,-4.130644798278809,-8.571971893310547
1772456005041228800,11.238228759765626,2.544767141342163,-4.171651363372803,-8.502462387084961
1772456005051264300,11.24826416015625,2.81282639503479,-4.23152494430542,-8.387645721435547
1772456005061218600,11.258218505859375,2.8998377323150635,-4.242237091064453,-8.352531433105469
1772456005071246000,11.26824609375,3.1735470294952393,-4.219995021820068,-8.263814926147461
1772456005081300000,11.278300048828125,3.3395445346832275,-4.205178737640381,-8.205748558044434
1772456005091274500,11.2882744140625,3.481776237487793,-4.195573806762695,-8.151366233825684
1772456005101226200,11.298226318359376,3.594985246658325,-4.193088531494141,-8.103363037109375
1772456005111254800,11.3082548828125,3.6484358310699463,-4.192445278167725,-8.079771041870117
1772456005121235200,11.318235107421875,3.7134649753570557,-4.206598281860352,-8.042705535888672
1772456005132215300,11.32921533203125,3.718198537826538,-4.217285633087158,-8.034917831420898
1772456005153790200,11.350790283203125,3.6993839740753174,-4.226566791534424,-8.038723945617676
1772456005161292500,11.35829248046875,3.646469831466675,-4.2316789627075195,-8.060182571411133
1772456005171339000,11.368339111328124,3.572514295578003,-4.237793922424316,-8.090034484863281
1772456005181289200,11.378289306640625,3.4905405044555664,-4.246418476104736,-8.121234893798828
1772456005191320000,11.388320068359375,3.270623207092285,-4.266528129577637,-8.201838493347168
1772456005201300000,11.398300048828125,3.1152186393737793,-4.287730693817139,-8.251132011413574
1772456005211355600,11.408355712890625,3.025808572769165,-4.309544563293457,-8.273011207580566
1772456005221339400,11.41833935546875,2.7280473709106445,-4.362794876098633,-8.348302841186523
1772456005231692000,11.428692138671876,2.5340821743011475,-4.409330368041992,-8.384904861450195
1772456005241364000,11.438364013671874,2.2377097606658936,-4.459580898284912,-8.442463874816895
1772456005261387300,11.45838720703125,1.928453803062439,-4.488251209259033,-8.50335693359375
1772456005271420000,11.468419921875,1.8129814863204956,-4.479771614074707,-8.53317928314209
1772456005281411800,11.478411865234374,1.7249516248703003,-4.459190368652344,-8.562159538269043
1772456005292068000,11.489068115234375,1.661564588546753,-4.430961608886719,-8.589305877685547
1772456005301421300,11.49842138671875,1.6236358880996704,-4.405942916870117,-8.609404563903809
1772456005313091800,11.510091796875,1.6071423292160034,-4.385359287261963,-8.622998237609863
1772456005321474300,11.518474365234376,1.606451153755188,-4.376353740692139,-8.627701759338379
1772456005331813400,11.5288134765625,1.5955246686935425,-4.368431091308594,-8.63374137878418
1772456005341485300,11.5384853515625,1.6688076257705688,-4.380061149597168,-8.613973617553711
1772456005361511000,11.558510986328125,1.8331854343414307,-4.422304630279541,-8.558799743652344
1772456005371590700,11.568590576171875,1.8747037649154663,-4.444301605224609,-8.5383882522583
1772456005381557500,11.5785576171875,2.1219210624694824,-4.4936065673828125,-8.454309463500977
1772456005391587800,11.588587890625,2.3143820762634277,-4.5200371742248535,-8.38947582244873
1772456005401576700,11.59857666015625,2.5237417221069336,-4.522676467895508,-8.3274564743042
1772456005411621600,11.60862158203125,2.7322981357574463,-4.512606143951416,-8.266881942749023
1772456005421589500,11.618589599609376,2.823232650756836,-4.5056352615356445,-8.24008560180664
1772456005431930600,11.6289306640625,3.0708425045013428,-4.5007405281066895,-8.153751373291016
1772456005441606700,11.638606689453125,3.1282315254211426,-4.501314163208008,-8.13158893585205
1772456005452272400,11.6492724609375,3.2033755779266357,-4.543362617492676,-8.078777313232422
1772456005474164000,11.6711640625,3.1367075443267822,-4.600710868835449,-8.072479248046875
1772456005481683700,11.67868359375,3.1482677459716797,-4.603792667388916,-8.066221237182617
1772456005491728600,11.688728759765626,3.0244271755218506,-4.632144451141357,-8.097314834594727
1772456005501684000,11.69868408203125,2.9452497959136963,-4.643750190734863,-8.119821548461914
1772456005511715800,11.7087158203125,2.8523178100585938,-4.652037143707275,-8.148202896118164
1772456005521697500,11.718697509765626,2.7366783618927,-4.657596111297607,-8.18460750579834
1772456005532048600,11.729048583984374,2.5909249782562256,-4.664097309112549,-8.22822380065918
1772456005541698000,11.738697998046876,2.4231743812561035,-4.67104434967041,-8.275262832641602
1772456005551725800,11.748725830078126,2.2059061527252197,-4.682057857513428,-8.329628944396973
1772456005561702700,11.75870263671875,1.995699167251587,-4.696813583374023,-8.374217987060547
1772456005581718300,11.77871826171875,1.7532050609588623,-4.6970133781433105,-8.428210258483887
1772456005591755000,11.788755126953125,1.5716742277145386,-4.65469217300415,-8.487287521362305
1772456005601735400,11.7987353515625,1.4953025579452515,-4.617779731750488,-8.521183967590332
1772456005612421000,11.809421142578126,1.4525067806243896,-4.57112979888916,-8.553677558898926
1772456005621790500,11.81879052734375,1.4418118000030518,-4.528454303741455,-8.578149795532227
1772456005633713200,11.830713134765626,1.460119605064392,-4.475982189178467,-8.602560043334961
1772456005641824500,11.838824462890624,1.4864859580993652,-4.441852569580078,-8.615723609924316
1772456005651872300,11.848872314453125,1.5413634777069092,-4.403651714324951,-8.625683784484863
1772456005661838300,11.85883837890625,1.616850733757019,-4.371160507202148,-8.62839126586914
1772456005671866000,11.8688662109375,1.7049009799957275,-4.342176914215088,-8.626078605651855
1772456005691891200,11.88889111328125,1.9138305187225342,-4.319736003875732,-8.59345817565918
1772456005701849900,11.898849853515625,1.966975212097168,-4.329707622528076,-8.576421737670898
1772456005711886000,11.908885986328125,2.3184847831726074,-4.339748859405518,-8.48301887512207
1772456005721863000,11.91886279296875,2.56437087059021,-4.31251335144043,-8.42595100402832
1772456005732220400,11.929220458984375,2.8067333698272705,-4.271123886108398,-8.369597434997559
1772456005741877000,11.938876953125,3.013373374938965,-4.235291004180908,-8.315786361694336
1772456005751917000,11.9489169921875,3.108093023300171,-4.218456745147705,-8.28943920135498
1772456005761910300,11.95891015625,3.2772722244262695,-4.196408271789551,-8.235292434692383
1772456005772576000,11.969575927734375,3.425865411758423,-4.196333408355713,-8.17463207244873
1772456005794455000,11.991455078125,3.440805673599243,-4.2258687019348145,-8.153115272521973
1772456005801953800,11.998953857421874,3.4143292903900146,-4.232970714569092,-8.16055965423584
1772456005812049000,12.009048828125,3.405987501144409,-4.237586975097656,-8.161648750305176
1772456005821974800,12.018974853515624,3.338667392730713,-4.240810871124268,-8.187747955322266
1772456005832321800,12.02932177734375,3.2535829544067383,-4.246059894561768,-8.219220161437988
1772456005841991700,12.03899169921875,3.0626425743103027,-4.24326229095459,-8.293692588806152
1772456005852061000,12.04906103515625,2.9289650917053223,-4.238753318786621,-8.344133377075195
1772456005862013200,12.05901318359375,2.8710336685180664,-4.236238479614258,-8.36551570892334
1772456005872022300,12.069022216796874,2.631678819656372,-4.228764533996582,-8.447614669799805
1772456005882003500,12.07900341796875,2.4507758617401123,-4.227868556976318,-8.502306938171387
1772456005902021000,12.099021240234375,2.13942289352417,-4.231322288513184,-8.584240913391113
1772456005912031000,12.109031005859375,1.9009920358657837,-4.2100019454956055,-8.650579452514648
1772456005922018600,12.1190185546875,1.8387973308563232,-4.202036380767822,-8.667877197265625
1772456005932968200,12.12996826171875,1.7045780420303345,-4.145564079284668,-8.722332954406738
1772456005942016300,12.139016357421875,1.6661994457244873,-4.112369537353516,-8.745430946350098
1772456005953660400,12.150660400390626,1.6520789861679077,-4.067328453063965,-8.769142150878906
1772456005962008300,12.15900830078125,1.636675238609314,-4.055378437042236,-8.77756118774414
1772456005972027600,12.169027587890625,1.6944867372512817,-4.000524997711182,-8.791751861572266
1772456005981986300,12.178986328125,1.7531650066375732,-3.9690656661987305,-8.79450511932373
1772456006011989800,12.20898974609375,1.9926668405532837,-3.8913514614105225,-8.778213500976562
1772456006021977900,12.218977783203124,2.1519975662231445,-3.8928115367889404,-8.7398681640625
1772456006032294100,12.229294189453125,2.3349978923797607,-3.89705753326416,-8.690865516662598
1772456006041963800,12.2389638671875,2.552273988723755,-3.9406001567840576,-8.609760284423828
1772456006051995600,12.24899560546875,2.777265787124634,-3.9340171813964844,-8.542874336242676
1772456006061959200,12.258959228515625,2.8829596042633057,-3.928170680999756,-8.510488510131836
1772456006071967500,12.268967529296875,3.0992798805236816,-3.904433250427246,-8.445131301879883
1772456006081939200,12.278939208984376,3.3940391540527344,-3.8699119091033936,-8.347134590148926
1772456006092583400,12.28958349609375,3.4751839637756348,-3.860384225845337,-8.318108558654785
1772456006114485200,12.3114853515625,3.711465358734131,-3.854961633682251,-8.217949867248535
1772456006121991400,12.318991455078125,3.740082263946533,-3.8698983192443848,-8.197930335998535
1772456006132333000,12.3293330078125,3.693563461303711,-3.888822555541992,-8.21005916595459
1772456006142029300,12.339029296875,3.641641616821289,-3.898484706878662,-8.228650093078613
1772456006152039000,12.349038818359375,3.571444034576416,-3.908888816833496,-8.254438400268555
1772456006162037000,12.359037109375,3.4838507175445557,-3.9224400520324707,-8.28538703918457
1772456006172059100,12.36905908203125,3.38529109954834,-3.938251256942749,-8.31867504119873
1772456006182031400,12.37903125,3.276559829711914,-3.9599318504333496,-8.35185432434082
1772456006192048000,12.389048095703124,3.133267641067505,-3.9872047901153564,-8.393760681152344
1772456006202037500,12.39903759765625,2.966322898864746,-4.015714168548584,-8.44069766998291
1772456006222019600,12.41901953125,2.5757346153259277,-4.084941864013672,-8.535176277160645
1772456006232336600,12.429336669921875,2.374291181564331,-4.113440990447998,-8.57978630065918
1772456006242018600,12.4390185546875,2.204068660736084,-4.131165981292725,-8.616609573364258
1772456006252650500,12.449650390625,2.064194440841675,-4.131629467010498,-8.650961875915527
1772456006262015200,12.45901513671875,1.9727518558502197,-4.118438243865967,-8.678543090820312
1772456006273621800,12.470621826171875,1.8997151851654053,-4.092819690704346,-8.706912994384766
1772456006292064300,12.489064208984376,1.8664216995239258,-4.040390968322754,-8.738540649414062
1772456006302019000,12.49901904296875,1.8822267055511475,-4.0102620124816895,-8.7490234375
1772456006312021500,12.509021484375,1.9168460369110107,-3.9809794425964355,-8.75487995147705
1772456006332337700,12.529337646484375,2.041393756866455,-3.9237987995147705,-8.752535820007324
1772456006342018600,12.5390185546875,2.1174652576446533,-3.8974785804748535,-8.746224403381348
1772456006352021000,12.54902099609375,2.21256422996521,-3.8811910152435303,-8.729907989501953
1772456006362004500,12.55900439453125,2.3588168621063232,-3.8845388889312744,-8.690037727355957
1772456006372022000,12.56902197265625,2.534473180770874,-3.9033658504486084,-8.631950378417969
1772456006381992000,12.578991943359375,2.749354839324951,-3.914062738418579,-8.561047554016113
1772456006391990300,12.588990234375,2.972644567489624,-3.9029698371887207,-8.49120807647705
1772456006401992000,12.598991943359374,3.082524061203003,-3.892261266708374,-8.456875801086426
1772456006412656400,12.609656494140625,3.4005367755889893,-3.85908579826355,-8.349503517150879
1772456006442052600,12.639052490234375,3.750981092453003,-3.8598737716674805,-8.197676658630371
1772456006452075000,12.649074951171874,3.7877309322357178,-3.8669183254241943,-8.177434921264648
1772456006462032400,12.659032470703124,3.7710728645324707,-3.911860704421997,-8.163744926452637
1772456006472033500,12.669033447265624,3.772135019302368,-3.9243178367614746,-8.15727424621582
1772456006482035700,12.67903564453125,3.662726402282715,-3.9607911109924316,-8.189443588256836
1772456006492052700,12.689052734375,3.643019199371338,-3.9700570106506348,-8.193744659423828
1772456006502017800,12.699017822265626,3.548487663269043,-3.986021041870117,-8.227408409118652
1772456006512017200,12.70901708984375,3.3631818294525146,-4.004755973815918,-8.295863151550293
1772456006522004700,12.719004638671874,3.3165953159332275,-4.015628337860107,-8.309351921081543
1772456006562058000,12.75905810546875,2.49619197845459,-4.085936069488525,-8.558302879333496
1772456006572683500,12.76968359375,2.3003389835357666,-4.103621482849121,-8.604599952697754
1772456006582051800,12.7790517578125,2.1449694633483887,-4.113845348358154,-8.639778137207031
1772456006593695200,12.7906953125,1.9965742826461792,-4.110323429107666,-8.676942825317383
1772456006602055200,12.79905517578125,1.9177820682525635,-4.096312999725342,-8.701306343078613
1772456006612073500,12.809073486328124,1.8537591695785522,-4.07157039642334,-8.726757049560547
1772456006622030300,12.8190302734375,1.8214324712753296,-4.0422186851501465,-8.747184753417969
1772456006652045000,12.849045166015625,1.8540624380111694,-3.946168899536133,-8.784110069274902
1772456006662012400,12.859012451171875,1.8945261240005493,-3.9153573513031006,-8.789263725280762
1772456006672029000,12.86902880859375,1.889354944229126,-3.8956899642944336,-8.799110412597656
1772456006682035500,12.879035400390626,1.9905519485473633,-3.8491249084472656,-8.797292709350586
1772456006692056000,12.88905615234375,2.021216869354248,-3.812437057495117,-8.806270599365234
1772456006702021600,12.899021728515624,2.048025369644165,-3.781059503555298,-8.81360149383545
1772456006712026400,12.9090263671875,2.1489667892456055,-3.773951530456543,-8.792590141296387
1772456006722035700,12.91903564453125,2.283302068710327,-3.7771904468536377,-8.757268905639648
1772456006732982500,12.929982421875,2.456920862197876,-3.7833406925201416,-8.707483291625977
1772456006754539500,12.95153955078125,2.896498203277588,-3.8222672939300537,-8.55400276184082
1772456006762063400,12.9590634765625,3.0752813816070557,-3.810009241104126,-8.496874809265137
1772456006772105000,12.96910498046875,3.2885265350341797,-3.779486656188965,-8.430389404296875
1772456006782068500,12.979068359375,3.46747088432312,-3.75317120552063,-8.370229721069336
1772456006792077300,12.989077392578125,3.5431478023529053,-3.7426767349243164,-8.343194007873535
1772456006802057500,12.999057373046876,3.6593902111053467,-3.745230197906494,-8.291711807250977
1772456006812081400,13.009081298828125,3.6802945137023926,-3.756646156311035,-8.277284622192383
1772456006822073300,13.0190732421875,3.6595869064331055,-3.7704036235809326,-8.2802095413208
1772456006832391700,13.0293916015625,3.6047441959381104,-3.7847094535827637,-8.297721862792969
1772456006842057500,13.039057373046875,3.6024365425109863,-3.7888495922088623,-8.296834945678711
1772456006872051000,13.069051025390625,3.2739319801330566,-3.800459623336792,-8.426641464233398
1772456006882037000,13.079037109375,3.1120169162750244,-3.7983059883117676,-8.488733291625977
1772456006892688400,13.0896884765625,2.930025815963745,-3.8003671169281006,-8.552342414855957
1772456006902037000,13.099037109375,2.627195119857788,-3.8189339637756348,-8.641990661621094
1772456006913643000,13.11064306640625,2.3813602924346924,-3.840209722518921,-8.703580856323242
1772456006922047200,13.119047119140625,2.225888967514038,-3.8425002098083496,-8.743626594543457
1772456006932373200,13.129373291015625,1.9925261735916138,-3.868307113647461,-8.788427352905273
1772456006942022400,13.1390224609375,1.7107969522476196,-3.875662326812744,-8.844366073608398
1772456006952022800,13.149022705078124,1.5619584321975708,-3.870962381362915,-8.87391185760498
1772456006972057900,13.169057861328126,1.3479175567626953,-3.836906909942627,-8.923657417297363
1772456006982021400,13.179021484375,1.2816963195800781,-3.810457229614258,-8.944723129272461
1772456006992025000,13.189025146484376,1.2432843446731567,-3.7798309326171875,-8.963119506835938
1772456007001998600,13.19899853515625,1.2250895500183105,-3.7647159099578857,-8.9719820022583
1772456007012024600,13.209024658203125,1.2450275421142578,-3.72238826751709,-8.986886978149414
1772456007021976300,13.218976318359376,1.2834718227386475,-3.699625253677368,-8.990877151489258
1772456007032287000,13.229286865234375,1.3465170860290527,-3.6795544624328613,-8.98989200592041
1772456007041947100,13.238947021484375,1.4217028617858887,-3.663389205932617,-8.984916687011719
1772456007052576300,13.249576171875,1.5225752592086792,-3.64993953704834,-8.973857879638672
1772456007081992000,13.278991943359374,1.9730015993118286,-3.674750566482544,-8.87546443939209
1772456007092010500,13.289010498046874,2.1683220863342285,-3.675719976425171,-8.829374313354492
1772456007101979600,13.298979736328125,2.360839605331421,-3.6684529781341553,-8.782896995544434
1772456007112007700,13.309007568359375,2.452580213546753,-3.6627602577209473,-8.76010513305664
1772456007121975300,13.318975341796875,2.6325509548187256,-3.6547791957855225,-8.711065292358398
1772456007132320500,13.329320556640624,2.848813533782959,-3.651122570037842,-8.644302368164062
1772456007141979100,13.338979248046876,2.9116170406341553,-3.6505391597747803,-8.623598098754883
1772456007151974000,13.348973876953124,2.9879958629608154,-3.6693975925445557,-8.589401245117188
1772456007161991200,13.3589912109375,2.9922752380371094,-3.6856822967529297,-8.58093547821045
1772456007191965000,13.38896484375,2.92340087890625,-3.7055304050445557,-8.596114158630371
1772456007201947600,13.39894775390625,2.8526556491851807,-3.707463502883911,-8.619017601013184
1772456007212587800,13.409587890625,2.555994987487793,-3.7221462726593018,-8.705338478088379
1772456007221954300,13.418954345703124,2.3689422607421875,-3.7274396419525146,-8.755837440490723
1772456007233893000,13.43089306640625,2.110952615737915,-3.735098361968994,-8.818352699279785
1772456007241959400,13.43895947265625,1.9276655912399292,-3.736799478530884,-8.859504699707031
1772456007251998700,13.448998779296875,1.680582880973816,-3.7308688163757324,-8.912163734436035
1772456007261951700,13.45895166015625,1.4017969369888306,-3.704888343811035,-8.97101879119873
1772456007271952600,13.46895263671875,1.1357905864715576,-3.696397304534912,-9.01204776763916
1772456007291957800,13.488957763671875,0.6705933213233948,-3.675671339035034,-9.06698226928711
1772456007301932500,13.4989326171875,0.58176589012146,-3.6683483123779297,-9.076077461242676
1772456007311932400,13.508932373046875,0.32697510719299316,-3.640509605407715,-9.100008964538574
1772456007321904000,13.518904052734374,0.20438744127750397,-3.6209921836853027,-9.111369132995605
1772456007332233700,13.529233642578125,0.112673319876194,-3.598085403442383,-9.12203311920166
1772456007341917400,13.53891748046875,0.046382103115320206,-3.569653272628784,-9.133772850036621
1772456007351932200,13.54893212890625,-0.01150835957378149,-3.5339760780334473,-9.147747039794922
1772456007361918200,13.558918212890624,-0.06252571940422058,-3.4899628162384033,-9.164422035217285
1772456007372531700,13.56953173828125,-0.11119359731674194,-3.4348068237304688,-9.18478012084961
1772456007394401300,13.5914013671875,-0.2645718455314636,-3.2518770694732666,-9.24800968170166
1772456007401890800,13.598890869140625,-0.3289355933666229,-3.236846685409546,-9.251215934753418
1772456007411911400,13.608911376953126,-0.40627896785736084,-3.1908979415893555,-9.264097213745117
1772456007421899300,13.618899169921875,-0.4506427049636841,-3.154700994491577,-9.274436950683594
1772456007432223500,13.629223388671875,-0.4953104257583618,-3.1016736030578613,-9.290032386779785
1772456007441896400,13.638896484375,-0.5376894474029541,-3.040943145751953,-9.307737350463867
1772456007451904000,13.648904052734375,-0.5727806091308594,-2.968938112258911,-9.328865051269531
1772456007461863200,13.65886328125,-0.5884808897972107,-2.8911571502685547,-9.352288246154785
1772456007472053800,13.6690537109375,-0.5709580779075623,-2.807304859161377,-9.378881454467773
1772456007481857500,13.678857421875,-0.5253980755805969,-2.7277772426605225,-9.40497875213623
1772456007511911400,13.708911376953125,-0.25130584836006165,-2.5469939708709717,-9.466787338256836
1772456007521837000,13.718837158203126,-0.09094400703907013,-2.5346293449401855,-9.473004341125488
1772456007532764700,13.7297646484375,0.05884966626763344,-2.4945130348205566,-9.483901023864746
1772456007541859300,13.738859375,0.1896452009677887,-2.4660637378692627,-9.4896240234375
1772456007553493800,13.75049365234375,0.3548661768436432,-2.4310669898986816,-9.493913650512695
1772456007561870600,13.75887060546875,0.5820581316947937,-2.3928027153015137,-9.492423057556152
1772456007571876900,13.768876953125,0.7004776000976562,-2.3640341758728027,-9.491630554199219
1772456007581856500,13.7788564453125,0.7758703827857971,-2.3416507244110107,-9.491315841674805
1772456007591891700,13.7888916015625,0.8147422671318054,-2.3247830867767334,-9.492205619812012
1772456007611847400,13.808847412109374,0.8821341395378113,-2.2907726764678955,-9.494449615478516
1772456007621847000,13.818846923828126,0.8199819326400757,-2.2986857891082764,-9.498109817504883
1772456007632191200,13.829191162109375,0.7195505499839783,-2.316969394683838,-9.501803398132324
1772456007641850000,13.83885009765625,0.6018962264060974,-2.3424072265625,-9.503747940063477
1772456007651850200,13.848850341796876,0.5477432012557983,-2.3499388694763184,-9.505167007446289
1772456007661849300,13.858849365234375,0.27953004837036133,-2.4158475399017334,-9.500311851501465
1772456007671882200,13.86888232421875,0.07714169472455978,-2.4539647102355957,-9.494338989257812
1772456007681847800,13.878847900390625,-0.11149580031633377,-2.4980084896087646,-9.482505798339844
1772456007692469000,13.889468994140625,-0.29592999815940857,-2.548916816711426,-9.464978218078613
1772456007721871600,13.91887158203125,-0.7273369431495667,-2.6404306888580322,-9.416448593139648
1772456007732195300,13.9291953125,-0.8352736234664917,-2.646007776260376,-9.405919075012207
1772456007741872000,13.9388720703125,-0.8734235763549805,-2.6462411880493164,-9.40239143371582
1772456007751920000,13.948920166015625,-0.9145604968070984,-2.631507158279419,-9.402613639831543
1772456007761886200,13.95888623046875,-0.867174506187439,-2.619626045227051,-9.410417556762695
1772456007771895600,13.9688955078125,-0.7729127407073975,-2.6120033264160156,-9.420746803283691
1772456007781900800,13.97890087890625,-0.7318541407585144,-2.6114983558654785,-9.424162864685059
1772456007791950600,13.98895068359375,-0.5883990526199341,-2.6145153045654297,-9.433370590209961
1772456007801917400,13.99891748046875,-0.4226040840148926,-2.621978759765625,-9.44018268585205
1772456007811931100,14.00893115234375,-0.24251170456409454,-2.6323702335357666,-9.443634033203125
1772456007832279000,14.029279052734376,0.1690431535243988,-2.645995855331421,-9.441425323486328
1772456007841944300,14.0389443359375,0.40495675802230835,-2.6439263820648193,-9.434833526611328
1772456007852569600,14.049569580078124,0.638252317905426,-2.639069080352783,-9.423286437988281
1772456007861965800,14.0589658203125,0.8577490448951721,-2.630892038345337,-9.408138275146484
1772456007873654800,14.07065478515625,1.056117057800293,-2.621047258377075,-9.390693664550781
1772456007882004000,14.07900390625,1.2397809028625488,-2.612833023071289,-9.370508193969727
1772456007892024600,14.089024658203124,1.3935545682907104,-2.6007580757141113,-9.35224437713623
1772456007902020000,14.09902001953125,1.5633248090744019,-2.5866246223449707,-9.32929801940918
1772456007912074200,14.10907421875,1.6607728004455566,-2.581233024597168,-9.313939094543457
1772456007922046000,14.1190458984375,1.7374948263168335,-2.5792477130889893,-9.300483703613281
1772456007932392000,14.129391845703125,1.7577228546142578,-2.5792784690856934,-9.296672821044922
1772456007942074400,14.139074462890624,1.7248212099075317,-2.584847927093506,-9.301287651062012
1772456007952137000,14.149136962890625,1.6486352682113647,-2.595916986465454,-9.312015533447266
1772456007962111000,14.159111083984374,1.5418899059295654,-2.611912250518799,-9.325818061828613
1772456007972128800,14.169128662109374,1.4080548286437988,-2.6341567039489746,-9.340718269348145
1772456007982126000,14.1791259765625,1.2522610425949097,-2.6630232334136963,-9.354708671569824
1772456007992166100,14.189166259765624,1.0708470344543457,-2.6991729736328125,-9.366865158081055
1772456008002131500,14.19913134765625,0.9634592533111572,-2.715803861618042,-9.373714447021484
1772456008012760300,14.20976025390625,0.6724199652671814,-2.7959673404693604,-9.375544548034668
1772456008035020800,14.232020751953126,0.4578910768032074,-2.8683862686157227,-9.366594314575195
1772456008042235600,14.239235595703125,0.286491721868515,-2.9391889572143555,-9.35144329071045
1772456008052256300,14.24925634765625,0.21653789281845093,-2.973062753677368,-9.342612266540527
1772456008062248200,14.259248291015625,0.1829606145620346,-2.99525785446167,-9.3362398147583
1772456008072309500,14.2693095703125,0.18631109595298767,-3.003490686416626,-9.333526611328125
1772456008082276600,14.279276611328125,0.22521628439426422,-2.994840621948242,-9.335448265075684
1772456008092287700,14.289287841796876,0.2997422516345978,-2.9678893089294434,-9.341958999633789
1772456008102286800,14.299286865234375,0.40708208084106445,-2.9241085052490234,-9.351698875427246
1772456008112324400,14.309324462890626,0.5427443385124207,-2.865935802459717,-9.362811088562012
1772456008122296300,14.31929638671875,0.6996166110038757,-2.7966694831848145,-9.373344421386719
1772456008142317600,14.339317626953125,1.07050359249115,-2.635791540145874,-9.384933471679688
1772456008152365600,14.349365478515624,1.274751901626587,-2.5678491592407227,-9.378250122070312
1772456008162333400,14.35933349609375,1.3603665828704834,-2.5451319217681885,-9.372410774230957
1772456008172966700,14.369966552734375,1.7593761682510376,-2.3639912605285645,-9.353422164916992
1772456008182349000,14.37934912109375,1.8542276620864868,-2.317802906036377,-9.346658706665039
1772456008193983000,14.39098291015625,2.283417224884033,-2.0641727447509766,-9.311046600341797
1772456008202360800,14.39936083984375,2.5007917881011963,-1.9023703336715698,-9.289640426635742
1772456008212373200,14.409373291015624,2.784533977508545,-1.6661393642425537,-9.254227638244629
1772456008222361900,14.41936181640625,2.995969533920288,-1.495468020439148,-9.21727466583252
1772456008232708600,14.42970849609375,3.1916046142578125,-1.3311896324157715,-9.17671012878418
1772456008252387800,14.449387939453125,3.501438856124878,-1.0451830625534058,-9.100435256958008
1772456008262386200,14.45938623046875,3.645322799682617,-0.9103443622589111,-9.058327674865723
1772456008272426500,14.469426513671875,3.701711654663086,-0.8117954134941101,-9.044816970825195
1772456008282400000,14.47939990234375,3.7166402339935303,-0.7033376693725586,-9.04777717590332
1772456008292416500,14.48941650390625,3.717334747314453,-0.6306605339050293,-9.052850723266602
1772456008302406000,14.499406005859376,3.715946674346924,-0.5945122838020325,-9.055864334106445
1772456008312457000,14.50945703125,3.650819778442383,-0.5819538235664368,-9.0831298828125
1772456008322421200,14.519421142578125,3.505063056945801,-0.7033867835998535,-9.131821632385254
1772456008333354800,14.530354736328125,3.3402655124664307,-0.8759443759918213,-9.178547859191895
1772456008354995700,14.55199560546875,3.1138107776641846,-1.1384400129318237,-9.229220390319824
1772456008362498600,14.55949853515625,3.049302339553833,-1.221696376800537,-9.240110397338867
1772456008372527600,14.569527587890626,2.9815545082092285,-1.308129072189331,-9.250380516052246
1772456008382526500,14.5795263671875,2.9519877433776855,-1.3450684547424316,-9.254563331604004
1772456008392571400,14.5895712890625,2.9151451587677,-1.4113306999206543,-9.25637435913086
1772456008402553300,14.59955322265625,2.909808874130249,-1.4616869688034058,-9.250236511230469
1772456008412581400,14.609581298828125,2.9106504917144775,-1.470263123512268,-9.248613357543945
1772456008422604000,14.61960400390625,2.9767374992370605,-1.406888723373413,-9.237428665161133
1772456008432949800,14.62994970703125,3.043675184249878,-1.3336434364318848,-9.226473808288574
1772456008442611200,14.639611083984375,3.1229870319366455,-1.2446075677871704,-9.21239948272705
1772456008462637000,14.659636962890625,3.316319704055786,-1.022040605545044,-9.172123908996582
1772456008472677600,14.669677734375,3.331031322479248,-1.0116407871246338,-9.16794490814209
1772456008482649300,14.6796494140625,3.5311994552612305,-0.7796972393989563,-9.115540504455566
1772456008493279000,14.690279052734375,3.678462028503418,-0.6113581657409668,-9.070036888122559
1772456008502675000,14.699675048828125,3.730851411819458,-0.5529890060424805,-9.052367210388184
1772456008514366200,14.7113662109375,3.8795888423919678,-0.38675153255462646,-8.998310089111328
1772456008522711800,14.7197119140625,4.104259967803955,-0.13978490233421326,-8.90538501739502
1772456008533043700,14.730043701171875,4.246009349822998,0.014139585196971893,-8.839774131774902
1772456008542738400,14.739738525390624,4.399659633636475,0.17426848411560059,-8.762592315673828
1772456008552970500,14.749970458984375,4.524293422698975,0.3101099133491516,-8.695114135742188
1772456008562765800,14.759765869140624,4.583331108093262,0.3739692270755768,-8.661617279052734
1772456008572786400,14.769786376953125,4.6756086349487305,0.49192458391189575,-8.606223106384277
1772456008582779100,14.779779052734375,4.712554454803467,0.5404004454612732,-8.583133697509766
1772456008592822000,14.789822021484374,4.749432563781738,0.6065189242362976,-8.558354377746582
1772456008602814000,14.79981396484375,4.767980575561523,0.6525018215179443,-8.544647216796875
1772456008612827600,14.80982763671875,4.771026611328125,0.6889333128929138,-8.54008674621582
1772456008622817500,14.819817626953125,4.740555763244629,0.6898738145828247,-8.556961059570312
1772456008633167600,14.830167724609375,4.681890487670898,0.6612254977226257,-8.591453552246094
1772456008642815700,14.839815673828125,4.6107282638549805,0.6179077625274658,-8.633063316345215
1772456008653436700,14.850436767578126,4.51291561126709,0.5514101982116699,-8.689069747924805
1772456008675357400,14.872357421875,4.315747261047363,0.32818421721458435,-8.799829483032227
1772456008682850000,14.87985009765625,4.254590034484863,0.2911357581615448,-8.830860137939453
1772456008692854800,14.889854736328125,4.1509199142456055,0.14366261661052704,-8.883671760559082
1772456008702843600,14.89984375,4.035323619842529,-0.09811375290155411,-8.937389373779297
1772456008712880600,14.909880615234375,3.973721981048584,-0.262455016374588,-8.961644172668457
1772456008722843100,14.919843017578126,3.9322350025177,-0.4149705171585083,-8.974170684814453
1772456008733163300,14.930163330078125,3.9096567630767822,-0.5538590550422668,-8.976537704467773
1772456008742843100,14.939843017578125,3.907468795776367,-0.6630056500434875,-8.970090866088867
1772456008772847900,14.969847900390626,3.9712815284729004,-0.844815194606781,-8.926679611206055
1772456008782834000,14.979833984375,4.006369113922119,-0.8372185826301575,-8.911703109741211
1772456008792889000,14.98988916015625,4.050017356872559,-0.7994410991668701,-8.895428657531738
1772456008802854700,14.999854736328125,4.099495887756348,-0.7406206727027893,-8.877838134765625
1772456008813468700,15.01046875,4.156054973602295,-0.6583499312400818,-8.858001708984375
1772456008822877400,15.01987744140625,4.20081090927124,-0.5944812893867493,-8.841388702392578
1772456008834825700,15.03182568359375,4.264858722686768,-0.49037355184555054,-8.817079544067383
1772456008842943700,15.03994384765625,4.31918478012085,-0.39652445912361145,-8.795329093933105
1772456008852964000,15.049964111328125,4.391908645629883,-0.2721273899078369,-8.76398754119873
1772456008873002000,15.070001953125,4.493720054626465,-0.0878758504986763,-8.716029167175293
1772456008882975200,15.079975341796874,4.6014790534973145,0.10656798630952835,-8.65941333770752
1772456008893006800,15.0900068359375,4.6699604988098145,0.25392860174179077,-8.619593620300293
1772456008903011300,15.10001123046875,4.733529567718506,0.37033188343048096,-8.58061408996582
1772456008913067300,15.1100673828125,4.76676082611084,0.43828490376472473,-8.558988571166992
1772456008923038700,15.120038818359374,4.824770450592041,0.5248974561691284,-8.521529197692871
1772456008933375700,15.130375732421875,4.880451202392578,0.6012006402015686,-8.484700202941895
1772456008943066400,15.14006640625,4.894765853881836,0.6255456805229187,-8.474689483642578
1772456008953116400,15.150116455078125,4.903961658477783,0.6444606781005859,-8.4679536819458
1772456008963090200,15.160090087890625,4.876608371734619,0.6226271986961365,-8.48536491394043
1772456008983110100,15.180110107421875,4.841174602508545,0.5994676947593689,-8.507294654846191
1772456008995669500,15.19266943359375,4.7410359382629395,0.48928824067115784,-8.570505142211914
1772456009003169300,15.200169189453124,4.700587272644043,0.44411975145339966,-8.595209121704102
1772456009013184800,15.210184814453125,4.67622709274292,0.4104447066783905,-8.61015796661377
1772456009023173600,15.220173583984375,4.5476226806640625,0.2412693053483963,-8.685120582580566
1772456009033529000,15.230529052734376,4.454293727874756,0.10429799556732178,-8.736061096191406
1772456009043195100,15.240195068359375,4.355046272277832,-0.05609335005283356,-8.786399841308594
1772456009053211100,15.250211181640625,4.250187873840332,-0.2345828115940094,-8.834663391113281
1772456009063208000,15.2602080078125,4.162405967712402,-0.38002297282218933,-8.871322631835938
1772456009073247700,15.270247802734374,4.087709903717041,-0.5080344080924988,-8.899600982666016
1772456009083469300,15.28046923828125,4.057074069976807,-0.5647692680358887,-8.910195350646973
1772456009093237200,15.2902373046875,3.9712533950805664,-0.7016134858131409,-8.9390869140625
1772456009103204000,15.3002041015625,3.9239726066589355,-0.7565035820007324,-8.955474853515625
1772456009113257000,15.310257080078125,3.88771915435791,-0.7786443829536438,-8.969380378723145
1772456009123196200,15.320196044921875,3.865882396697998,-0.7684478759765625,-8.979690551757812
1772456009134156800,15.33115673828125,3.857515335083008,-0.7237963676452637,-8.986994743347168
1772456009143207000,15.34020703125,3.8507518768310547,-0.7177305221557617,-8.990381240844727
1772456009154887700,15.3518876953125,3.8718061447143555,-0.5781649351119995,-8.991397857666016
1772456009163203000,15.360203125,3.882124423980713,-0.5101715922355652,-8.991064071655273
1772456009173221000,15.37022119140625,3.87394642829895,-0.49342095851898193,-8.995525360107422
1772456009203177500,15.400177490234375,3.9968953132629395,-0.1208849772810936,-8.954363822937012
1772456009213192000,15.41019189453125,4.032069206237793,-0.026983285322785378,-8.939356803894043
1772456009223193300,15.420193359375,4.133605003356934,0.1598290354013443,-8.89146614074707
1772456009233550300,15.43055029296875,4.197339057922363,0.2678822875022888,-8.858948707580566
1772456009243201000,15.440200927734375,4.252505302429199,0.3502946197986603,-8.829715728759766
1772456009253201200,15.450201171875,4.30224609375,0.41814708709716797,-8.802626609802246
1772456009263177200,15.46017724609375,4.325667381286621,0.45269644260406494,-8.789429664611816
1772456009273209000,15.470208984375,4.367311000823975,0.5011323690414429,-8.766175270080566
1772456009283193600,15.480193603515625,4.381683349609375,0.520536482334137,-8.757869720458984
1772456009303193600,15.500193603515624,4.378237724304199,0.5103182792663574,-8.760193824768066
1772456009315719700,15.5127197265625,4.378101825714111,0.5130760669708252,-8.760101318359375
1772456009323210500,15.52021044921875,4.333457946777344,0.43903908133506775,-8.786283493041992
1772456009333529300,15.530529296875,4.298791885375977,0.38441914319992065,-8.805851936340332
1772456009343225300,15.540225341796875,4.256130218505859,0.31735068559646606,-8.829214096069336
1772456009353251800,15.550251953125,4.19867467880249,0.22541210055351257,-8.859498023986816
1772456009363202000,15.5602021484375,4.168192386627197,0.1741834282875061,-8.875033378601074
1772456009373233700,15.570233642578126,4.069920063018799,-0.03929536044597626,-8.922140121459961
1772456009383204000,15.5802041015625,4.001605033874512,-0.1929273009300232,-8.950996398925781
1772456009413200100,15.6102001953125,3.826425552368164,-0.6418782472610474,-9.006489753723145
1772456009423196400,15.620196533203124,3.7650961875915527,-0.8227934837341309,-9.017619132995605
1772456009433539800,15.630539794921875,3.748323440551758,-0.8687912821769714,-9.020292282104492
1772456009443192800,15.64019287109375,3.718392848968506,-0.9437206983566284,-9.025151252746582
1772456009453820700,15.650820556640625,3.7119414806365967,-0.9574784636497498,-9.026357650756836
1772456009463206000,15.660205810546875,3.714451551437378,-0.9405220150947571,-9.027107238769531
1772456009474841900,15.671841796875,3.7644946575164795,-0.8054850697517395,-9.019432067871094
1772456009483218700,15.68021875,3.8003971576690674,-0.7209709286689758,-9.01152515411377
1772456009493225200,15.69022509765625,3.8403987884521484,-0.618317186832428,-9.002189636230469
1772456009513219600,15.710219482421875,3.9279565811157227,-0.4251292049884796,-8.975566864013672
1772456009523193000,15.720193115234375,3.954981803894043,-0.37857699394226074,-8.965779304504395
1772456009533511400,15.730511474609376,4.102647304534912,-0.13344605267047882,-8.90622615814209
1772456009543188500,15.7401884765625,4.210241794586182,0.029882805421948433,-8.85682487487793
1772456009553208800,15.750208740234376,4.264634132385254,0.11492577195167542,-8.83006763458252
1772456009563167200,15.760167236328124,4.422710418701172,0.3200453221797943,-8.746862411499023
1772456009573175800,15.77017578125,4.518402576446533,0.43146511912345886,-8.693000793457031
1772456009583155200,15.7801552734375,4.6008620262146,0.5187140703201294,-8.644847869873047
1772456009593182200,15.79018212890625,4.66366720199585,0.5828521847724915,-8.607025146484375
1772456009603142100,15.80014208984375,4.706099033355713,0.6285098195075989,-8.580676078796387
1772456009623149000,15.820149169921875,4.7304840087890625,0.6571949124336243,-8.565103530883789
1772456009635960800,15.8329609375,4.698843955993652,0.6145812273025513,-8.585660934448242
1772456009643152600,15.840152587890625,4.668638706207275,0.5752686262130737,-8.604840278625488
1772456009653151200,15.850151123046874,4.61379861831665,0.5019491314888,-8.638941764831543
1772456009663155500,15.860155517578125,4.546593189239502,0.41430824995040894,-8.679125785827637
1772456009673171500,15.87017138671875,4.468052864074707,0.31851592659950256,-8.72384262084961
1772456009683123500,15.88012353515625,4.376424789428711,0.21856383979320526,-8.773226737976074
1772456009693124400,15.890124267578125,4.272884845733643,0.07852146029472351,-8.826476097106934
1772456009703111700,15.900111572265626,4.172629356384277,-0.09759265184402466,-8.87412166595459
1772456009713144000,15.91014404296875,4.123597621917725,-0.1752370297908783,-8.895821571350098
1772456009733417000,15.9304169921875,3.879014253616333,-0.7403963804244995,-8.976384162902832
1772456009743246800,15.940246826171874,3.771371603012085,-0.9756786823272705,-8.999733924865723
1772456009753112000,15.950112060546875,3.6353919506073,-1.228403925895691,-9.024706840515137
1772456009763065600,15.960065673828124,3.5869131088256836,-1.331920862197876,-9.029420852661133
1772456009773696500,15.970696533203125,3.5325562953948975,-1.543561577796936,-9.017141342163086
1772456009783102500,15.9801025390625,3.4943716526031494,-1.833404779434204,-8.9776611328125
1772456009794757600,15.991757568359375,3.4929211139678955,-2.010096788406372,-8.940324783325195
1772456009803068700,16.000068603515626,3.5090513229370117,-2.1125237941741943,-8.9103422164917
1772456009833440800,16.030440673828124,3.661290168762207,-2.282334089279175,-8.806604385375977
1772456009843073300,16.0400732421875,3.8423216342926025,-2.287923812866211,-8.727677345275879
1772456009853087700,16.050087646484375,3.966994047164917,-2.275162696838379,-8.675077438354492
1772456009863088600,16.060088623046877,4.0169243812561035,-2.27703595161438,-8.651577949523926
1772456009873109500,16.070109619140624,4.251759052276611,-2.203824520111084,-8.557809829711914
1772456009883065300,16.0800654296875,4.404468536376953,-2.165323257446289,-8.490137100219727
1772456009893081000,16.0900810546875,4.584611892700195,-2.1386845111846924,-8.401057243347168
1772456009903379000,16.10037890625,4.759037017822266,-2.066956043243408,-8.321637153625488
1772456009913097000,16.110096923828124,4.847370147705078,-2.0336456298828125,-8.278749465942383
1772456009933996500,16.13099658203125,5.15001106262207,-1.8689919710159302,-8.133551597595215
1772456009943067000,16.14006689453125,5.245849132537842,-1.832502007484436,-8.08043384552002
1772456009955621000,16.15262109375,5.343056678771973,-1.8141952753067017,-8.020650863647461
1772456009963119600,16.16011962890625,5.403573989868164,-1.8106034994125366,-7.98082160949707
1772456009973123000,16.170123046875,5.482231616973877,-1.80767822265625,-7.927662372589111
1772456009983112700,16.18011279296875,5.571884632110596,-1.8012921810150146,-7.866373538970947
1772456009993144000,16.19014404296875,5.668259620666504,-1.7914382219314575,-7.799485683441162
1772456010003112400,16.200112548828123,5.707953453063965,-1.7901525497436523,-7.770779132843018
1772456010013122000,16.2101220703125,5.722841739654541,-1.7945581674575806,-7.75880241394043
1772456010033481700,16.230481689453125,5.730688571929932,-1.8084967136383057,-7.749769687652588
1772456010043130400,16.24013037109375,5.651987552642822,-1.8863794803619385,-7.7889018058776855
1772456010053151200,16.250151123046876,5.58491849899292,-1.9574980735778809,-7.81967306137085
1772456010063155200,16.2601552734375,5.501509189605713,-2.0482358932495117,-7.855476379394531
1772456010073184800,16.270184814453124,5.400094985961914,-2.1578831672668457,-7.896385192871094
1772456010083144700,16.280144775390625,5.27847957611084,-2.3079288005828857,-7.936089038848877
1772456010093755100,16.290755126953126,5.145783424377441,-2.4402318000793457,-7.983518600463867
1772456010103169800,16.300169677734374,5.021711349487305,-2.5568041801452637,-8.025930404663086
1772456010114784300,16.3117841796875,4.880191802978516,-2.679243803024292,-8.073151588439941
1772456010143181000,16.34018115234375,4.5636305809021,-2.9085824489593506,-8.178253173828125
1772456010153185300,16.350185302734374,4.475271224975586,-2.9530460834503174,-8.211080551147461
1772456010163140400,16.360140380859374,4.4381818771362305,-2.9709038734436035,-8.22475814819336
1772456010173145600,16.3701455078125,4.3680853843688965,-2.978184700012207,-8.259578704833984
1772456010183149000,16.380149169921875,4.360725402832031,-2.946514129638672,-8.274811744689941
1772456010193184000,16.39018408203125,4.377821445465088,-2.8874051570892334,-8.286614418029785
1772456010203145700,16.400145751953126,4.383038520812988,-2.8625833988189697,-8.292465209960938
1772456010213171000,16.4101708984375,4.477871417999268,-2.711193561553955,-8.29267692565918
1772456010223165000,16.4201650390625,4.548547267913818,-2.6089725494384766,-8.286999702453613
1772456010253857800,16.45085791015625,4.773290634155273,-2.3398566246032715,-8.240823745727539
1772456010263259400,16.46025927734375,4.881533622741699,-2.258157253265381,-8.200106620788574
1772456010275772200,16.472772216796876,5.0315165519714355,-2.1605618000030518,-8.135490417480469
1772456010283258000,16.480258056640626,5.119832992553711,-2.1135637760162354,-8.092622756958008
1772456010293256700,16.490256591796875,5.235043525695801,-2.0617055892944336,-8.032066345214844
1772456010303251200,16.500251220703124,5.301717281341553,-2.035431146621704,-7.994948387145996
1772456010313296100,16.510296142578124,5.462763786315918,-1.9933615922927856,-7.896524906158447
1772456010323297500,16.520297607421874,5.57735013961792,-1.9617186784744263,-7.824016094207764
1772456010353440800,16.550440673828124,5.7578206062316895,-1.884950876235962,-7.711345672607422
1772456010363444700,16.56044482421875,5.802958011627197,-1.8406213521957397,-7.688183784484863
1772456010373498000,16.570498046875,5.819227695465088,-1.8166284561157227,-7.681590557098389
1772456010383511600,16.580511474609374,5.81777811050415,-1.802751898765564,-7.685956001281738
1772456010393555000,16.590554931640625,5.798001289367676,-1.800592064857483,-7.701391696929932
1772456010403507200,16.600507080078124,5.7606329917907715,-1.810475468635559,-7.72707462310791
1772456010414156800,16.61115673828125,5.707409858703613,-1.833109974861145,-7.761157512664795
1772456010423576000,16.620576171875,5.64117956161499,-1.864758849143982,-7.801932334899902
1772456010435897600,16.632897705078125,5.512318134307861,-1.9383609294891357,-7.875754356384277
1772456010473724700,16.670724609375,5.132296562194824,-2.2393994331359863,-8.050777435302734
1772456010483729200,16.680729248046877,4.977921009063721,-2.3772947788238525,-8.107969284057617
1772456010493784600,16.69078466796875,4.930774211883545,-2.4189765453338623,-8.124433517456055
1772456010503779600,16.700779541015624,4.85187292098999,-2.4894702434539795,-8.150599479675293
1772456010513796600,16.710796630859374,4.772064208984375,-2.560350179672241,-8.175721168518066
1772456010523748000,16.720748046875,4.740088939666748,-2.5868782997131348,-8.185964584350586
1772456010534074400,16.731074462890625,4.7278523445129395,-2.594224452972412,-8.190714836120605
1772456010543775200,16.740775146484374,4.7328925132751465,-2.585498094558716,-8.190563201904297
1772456010563741700,16.76074169921875,4.787014484405518,-2.5281476974487305,-8.177000999450684
1772456010574350300,16.771350341796875,4.834565162658691,-2.485004186630249,-8.162238121032715
1772456010583732500,16.780732421875,4.806802272796631,-2.5060970783233643,-8.172179222106934
1772456010596244000,16.793243896484373,4.964528560638428,-2.3867342472076416,-8.113405227661133
1772456010603737300,16.8007373046875,4.975817680358887,-2.383729934692383,-8.107370376586914
1772456010613738000,16.810738037109374,5.153358459472656,-2.2661659717559814,-8.029805183410645
1772456010623730400,16.82073046875,5.275228977203369,-2.19674015045166,-7.969735622406006
1772456010634091300,16.83109130859375,5.413565158843994,-2.127047061920166,-7.895527362823486
1772456010643739400,16.840739501953124,5.562129020690918,-2.0639288425445557,-7.808540344238281
1772456010653743400,16.850743408203126,5.634453773498535,-2.0353291034698486,-7.764068603515625
1772456010673755400,16.87075537109375,5.821386337280273,-1.9927821159362793,-7.636142253875732
1772456010683714600,16.880714599609377,5.858738422393799,-1.9844975471496582,-7.6096882820129395
1772456010693717000,16.890717041015623,5.900083541870117,-1.9756072759628296,-7.579997539520264
1772456010703691300,16.900691162109375,5.913287162780762,-1.968991994857788,-7.571427345275879
1772456010713707300,16.910707275390624,5.913651466369629,-1.9673619270324707,-7.5715651512146
1772456010723680500,16.920680419921876,5.902212142944336,-1.9708150625228882,-7.579589366912842
1772456010734598700,16.9315986328125,5.886685371398926,-1.9746695756912231,-7.590652942657471
1772456010743659300,16.9406591796875,5.860079765319824,-1.986537218093872,-7.608121871948242
1772456010755271000,16.95227099609375,5.783033847808838,-2.0332672595977783,-7.654588222503662
1772456010783662800,16.980662841796875,5.481717586517334,-2.282222270965576,-7.804654598236084
1772456010793680000,16.990679931640624,5.341032028198242,-2.417529582977295,-7.861254692077637
1772456010803631600,17.000631591796875,5.181125164031982,-2.5721242427825928,-7.918997287750244
1772456010813677600,17.010677490234375,4.9966301918029785,-2.742316722869873,-7.980212688446045
1772456010823720200,17.02072021484375,4.791117191314697,-2.9169301986694336,-8.044072151184082
1772456010834041900,17.031041748046874,4.518884181976318,-3.1222317218780518,-8.124146461486816
1772456010843682800,17.040682861328126,4.253129959106445,-3.2983579635620117,-8.197689056396484
1772456010853680600,17.0506806640625,3.993360757827759,-3.4412097930908203,-8.269311904907227
1772456010863653400,17.0606533203125,3.736738681793213,-3.554973840713501,-8.340825080871582
1772456010894253800,17.09125390625,3.1512084007263184,-3.695075750350952,-8.519783020019531
1772456010903627000,17.100626953125,3.1066322326660156,-3.6950137615203857,-8.536165237426758
1772456010916142000,17.11314208984375,3.058849811553955,-3.620375394821167,-8.5852632522583
1772456010923634200,17.12063427734375,3.054928779602051,-3.6128549575805664,-8.589823722839355
1772456010933953800,17.130953857421876,3.1579647064208984,-3.482977867126465,-8.606189727783203
1772456010943638500,17.140638427734373,3.2519314289093018,-3.394932985305786,-8.606378555297852
1772456010953661400,17.150661376953124,3.3736979961395264,-3.298858165740967,-8.5968656539917
1772456010963628800,17.16062890625,3.508004665374756,-3.2040953636169434,-8.578930854797363
1772456010973631000,17.170630859375,3.63167142868042,-3.1213369369506836,-8.557955741882324
1772456010993646300,17.190646240234376,3.9618875980377197,-2.9289820194244385,-8.479085922241211
1772456011003604500,17.2006044921875,4.03851318359375,-2.8859951496124268,-8.457650184631348
1772456011013632500,17.210632568359376,4.3300089836120605,-2.7123208045959473,-8.370467185974121
1772456011023623700,17.220623779296876,4.5132269859313965,-2.6017162799835205,-8.308564186096191
1772456011033960700,17.230960693359375,4.7194366455078125,-2.4768855571746826,-8.231788635253906
1772456011043612700,17.24061279296875,4.881314277648926,-2.385817289352417,-8.164010047912598
1772456011054227000,17.25122705078125,5.0493621826171875,-2.274229049682617,-8.093343734741211
1772456011063627800,17.260627685546876,5.220585823059082,-2.1645641326904297,-8.014396667480469
1772456011075297500,17.272297607421876,5.357142448425293,-2.1084513664245605,-7.9388813972473145
1772456011093649200,17.290649169921874,5.3783416748046875,-2.1193344593048096,-7.921633243560791
1772456011103644400,17.30064453125,5.341705799102783,-2.1450858116149902,-7.9394683837890625
1772456011113680400,17.310680419921876,5.343817710876465,-2.1768405437469482,-7.929399490356445
1772456011123651600,17.320651611328124,5.187557220458984,-2.2402384281158447,-8.015046119689941
1772456011133974500,17.330974609375,5.061679840087891,-2.2939226627349854,-8.08008098602295
1772456011143663000,17.3406630859375,5.001636028289795,-2.332812547683716,-8.106295585632324
1772456011153698600,17.350698486328124,4.832715034484863,-2.4019227027893066,-8.188163757324219
1772456011163686000,17.360685791015626,4.5564751625061035,-2.491128921508789,-8.318846702575684
1772456011173706800,17.370706787109373,4.364836692810059,-2.5559780597686768,-8.401521682739258
1772456011183713800,17.3807138671875,4.167926788330078,-2.6210601329803467,-8.481085777282715
1772456011203717000,17.400717041015625,3.797307252883911,-2.73363995552063,-8.618473052978516
1772456011214347300,17.41134716796875,3.6236915588378906,-2.7793660163879395,-8.678386688232422
1772456011223754200,17.420754150390625,3.4848222732543945,-2.8157143592834473,-8.723424911499023
1772456011236580900,17.433580810546875,3.3385541439056396,-2.849578857421875,-8.769514083862305
1772456011243790000,17.4407900390625,3.284076690673828,-2.858260154724121,-8.787240028381348
1772456011253831000,17.450830810546876,3.2459053993225098,-2.8561463356018066,-8.802098274230957
1772456011263825700,17.46082568359375,3.2351765632629395,-2.853456974029541,-8.806918144226074
1772456011273854700,17.470854736328125,3.3203885555267334,-2.802492380142212,-8.791556358337402
1772456011283817500,17.4808173828125,3.4135236740112305,-2.757063865661621,-8.77022647857666
1772456011293826800,17.490826904296874,3.531856060028076,-2.7015137672424316,-8.740606307983398
1772456011313878800,17.510878662109373,3.815549612045288,-2.610539436340332,-8.648528099060059
