time,seconds_elapsed,z,y,x
1772734439878070800,0.52207080078125,9.708487510681152,-0.8810662031173706,-0.9744400978088379
1772734439888081400,0.532081298828125,9.718064308166504,-0.8403648138046265,-1.0319008827209473
1772734439898143200,0.542143310546875,9.655815124511719,-0.8355764150619507,-1.0534487962722778
1772734439908153900,0.55215380859375,9.691728591918945,-0.8690952062606812,-0.9816226959228516
1772734439918208800,0.562208740234375,9.624691009521484,-0.8834604024887085,-1.0893617868423462
1772734439928209000,0.572208984375,9.679757118225098,-0.8690952062606812,-1.0319008827209473
1772734439938282800,0.58228271484375,9.667786598205566,-0.912190854549408,-0.950498104095459
1772734439948270300,0.592270263671875,9.6989107131958,-0.9409212470054626,-0.950498104095459
1772734439958672400,0.60267236328125,9.706093788146973,-0.9074024558067322,-0.9983820915222168
1772734439968327000,0.612326904296875,9.715670585632324,-0.9169792532920837,-1.039083480834961
1772734439978378800,0.622378662109375,9.6989107131958,-0.8619126081466675,-0.993593692779541
1772734439988387600,0.6323876953125,9.660603523254395,-0.8906430602073669,-1.0223240852355957
1772734439999066600,0.643066650390625,9.684545516967773,-0.8092401623725891,-1.0965443849563599
1772734440008447200,0.652447265625,9.684545516967773,-0.8858546018600464,-1.072602391242981
1772734440020981500,0.6649814453125,9.57441234588623,-0.8810662031173706,-1.091755986213684
1772734440028525300,0.672525390625,9.569623947143555,-0.871489405632019,-0.9959878921508789
1772734440038589400,0.68258935546875,9.615114212036133,-0.8212111592292786,-0.9576807022094727
1772734440048588500,0.692588623046875,9.684545516967773,-0.7637503147125244,-0.9528923034667969
1772734440058984200,0.702984130859375,9.806650161743164,-0.6847416758537292,-1.0319008827209473
1772734440068681200,0.71268115234375,9.821015357971191,-0.7254431247711182,-1.1540051698684692
1772734440078768000,0.72276806640625,9.737217903137207,-0.8930372595787048,-1.213860273361206
1772734440088751600,0.732751708984375,9.646238327026367,-0.950498104095459,-1.2473790645599365
1772734440098814700,0.742814697265625,9.50498104095459,-1.0438719987869263,-1.0773907899856567
1772734440108822000,0.752822021484375,9.375694274902344,-1.1516109704971313,-1.0295066833496094
1772734440118909000,0.762908935546875,9.454702377319336,-0.9457096457481384,-1.0199298858642578
1772734440128896500,0.772896484375,9.543288230895996,-0.7086837291717529,-0.9313444495201111
1772734440138955300,0.782955322265625,9.751583099365234,-0.5027823448181152,-1.070208191871643
1772734440148956700,0.792956787109375,10.065223693847656,0.002394201699644327,-1.216254472732544
1772734440159961000,0.803961181640625,9.99339771270752,-0.1843535304069519,-1.335964560508728
1772734440169038000,0.8130380859375,9.931148529052734,-0.5291185975074768,-1.3527239561080933
1772734440180702000,0.824701904296875,9.871294021606445,-0.7134721279144287,-1.2617442607879639
1772734440199259000,0.8432587890625,9.660603523254395,-0.9888052940368652,-1.2330138683319092
1772734440209285400,0.853285400390625,9.672574996948242,-0.912190854549408,-1.2282254695892334
1772734440219339000,0.863339111328125,9.66299819946289,-0.8427590131759644,-1.3958195447921753
1772734440229363200,0.87336328125,9.715670585632324,-0.6344634294509888,-1.4987702369689941
1772734440239432000,0.883431884765625,9.655815124511719,-0.5147533416748047,-1.6184803247451782
1772734440249436700,0.893436767578125,9.72285270690918,-0.20111294090747833,-1.7262194156646729
1772734440259798800,0.903798828125,9.727641105651855,0.10055647045373917,-1.8698714971542358
1772734440269517800,0.913517822265625,9.66539192199707,0.19871874153614044,-1.9321208000183105
1772734440279585300,0.923585205078125,9.490615844726562,0.1843535304069519,-2.145204782485962
1772734440289585200,0.933585205078125,9.469067573547363,-0.1173158809542656,-2.188300371170044
1772734440309696000,0.953696044921875,9.344569206237793,-0.6727706789970398,-2.049436569213867
1772734440320381000,0.964380859375,9.452308654785156,-0.9241618514060974,-1.7405846118927002
1772734440329776600,0.973776611328125,9.421183586120605,-1.0438719987869263,-1.6041151285171509
1772734440342316300,0.98631640625,9.428366661071777,-0.9385270476341248,-1.5538369417190552
1772734440349906000,0.993906005859375,9.311050415039062,-0.6727706789970398,-1.4460978507995605
1772734440360272100,1.004272216796875,9.26795482635498,-0.4908113479614258,-1.5825673341751099
1772734440369961500,1.01396142578125,9.205705642700195,-0.6248866319656372,-1.678335428237915
1772734440380012300,1.02401220703125,9.251194953918457,-0.8331822156906128,-1.778891921043396
1772734440390038300,1.034038330078125,9.26795482635498,-0.9744400978088379,-1.7980455160140991
1772734440410112800,1.05411279296875,9.107542991638184,-1.0989385843276978,-1.6400281190872192
1772734440420164000,1.0641640625,9.425971984863281,-1.5083470344543457,-1.4652514457702637
1772734440430183400,1.074183349609375,9.5624418258667,-1.920149803161621,-1.113303780555725
1772734440440260000,1.084260009765625,9.660603523254395,-1.9991583824157715,-0.6488286852836609
1772734440450289000,1.094288818359375,9.739612579345703,-1.8555063009262085,-0.19871874153614044
1772734440460625000,1.104625,9.765948295593262,-1.886630892753601,0.17477671802043915
1772734440470333700,1.114333740234375,9.610325813293457,-1.8602946996688843,0.4836287498474121
1772734440481002800,1.125002685546875,9.313444137573242,-2.0446481704711914,0.6703764796257019
1772734440490421200,1.134421142578125,8.841787338256836,-2.2218191623687744,0.8403648138046265
1772734440502088700,1.146088623046875,8.451532363891602,-2.434903144836426,0.9576807022094727
1772734440510490000,1.154489990234375,8.269572257995605,-2.693476915359497,1.0271124839782715
1772734440520538600,1.16453857421875,8.1139497756958,-3.021482467651367,1.0462661981582642
1772734440530521600,1.174521484375,8.250418663024902,-3.337517261505127,1.2761094570159912
1772734440540556000,1.18455615234375,8.647856712341309,-3.5865142345428467,1.4532804489135742
1772734440550560000,1.19456005859375,8.848969459533691,-3.7636849880218506,1.7741034030914307
1772734440560928000,1.204927978515625,9.016563415527344,-3.8163576126098633,2.032677173614502
1772734440570583300,1.214583251953125,9.138668060302734,-3.706224203109741,2.2170307636260986
1772734440580611300,1.224611328125,8.827422142028809,-3.6080620288848877,2.451662540435791
1772734440590620700,1.23462060546875,8.418013572692871,-3.5913026332855225,2.492363929748535
1772734440600670200,1.244670166015625,7.69735860824585,-3.6822822093963623,2.559401512145996
1772734440620678700,1.2646787109375,7.275979042053223,-4.393360137939453,2.4229321479797363
1772734440630681000,1.27468115234375,7.321468830108643,-4.857835292816162,2.367865562438965
1772734440641345300,1.28534521484375,7.9846625328063965,-5.104437828063965,2.9089550971984863
1772734440650716700,1.294716552734375,8.106766700744629,-4.977545261383057,3.1531636714935303
1772734440663568000,1.30756787109375,7.843404769897461,-4.865017890930176,3.361459255218506
1772734440672803300,1.31680322265625,7.728483200073242,-4.99669885635376,3.4380736351013184
1772734440682849000,1.32684912109375,7.8098859786987305,-5.051765441894531,3.2776620388031006
1772734440692825900,1.336825927734375,7.793126583099365,-4.8267107009887695,3.1076738834381104
1772734440702857500,1.346857421875,7.582436561584473,-4.730942726135254,3.1076738834381104
1772734440722934800,1.366934814453125,7.687781810760498,-5.183446884155273,3.450044631958008
1772734440732939500,1.376939453125,7.922413349151611,-5.57370138168335,3.6080620288848877
1772734440742949400,1.386949462890625,7.8529815673828125,-5.643133640289307,3.6320040225982666
1772734440752955600,1.39695556640625,7.836222171783447,-5.669469833374023,3.490746021270752
1772734440763323600,1.40732373046875,7.826645374298096,-5.623979568481445,3.423708438873291
1772734440772990200,1.416990234375,8.061277389526367,-5.578489780426025,3.3901896476745605
1772734440783042000,1.4270419921875,8.458714485168457,-5.403713226318359,3.3710360527038574
1772734440793038800,1.437038818359375,8.564059257507324,-4.9799394607543945,3.3016040325164795
1772734440803690000,1.44768994140625,8.489839553833008,-4.8602294921875,3.1507694721221924
1772734440824686300,1.468686279296875,8.7268648147583,-5.166687488555908,2.9448680877685547
1772734440833120500,1.47712060546875,8.822632789611816,-5.118803024291992,2.719813108444214
1772734440843167700,1.487167724609375,8.729259490966797,-4.994304656982422,2.425326347351074
1772734440853149200,1.497149169921875,8.609549522399902,-4.546588897705078,2.185906171798706
1772734440863491300,1.5074912109375,8.614337921142578,-4.388571739196777,2.126051187515259
1772734440873186800,1.517186767578125,8.793902397155762,-4.185064792633057,1.9393033981323242
1772734440883236900,1.52723681640625,8.937555313110352,-3.936067581176758,1.8076223134994507
1772734440893212000,1.5372119140625,8.975862503051758,-3.8379054069519043,1.7166426181793213
1772734440903236900,1.54723681640625,8.99740982055664,-3.7158010005950928,1.4437036514282227
1772734440923272700,1.567272705078125,8.647856712341309,-3.641580820083618,1.3287819623947144
1772734440933253400,1.57725341796875,8.65743350982666,-3.691859006881714,1.2689268589019775
1772734440943279000,1.587279052734375,8.808267593383789,-3.7469255924224854,1.3096283674240112
1772734440953292300,1.597292236328125,8.9064302444458,-4.094084739685059,1.434126853942871
1772734440964248300,1.608248291015625,9.006986618041992,-4.338293552398682,1.4221558570861816
1772734440973311500,1.6173115234375,9.011775016784668,-4.623203277587891,1.414973258972168
1772734440985827600,1.62982763671875,8.983044624328613,-4.7405195236206055,1.5298948287963867
1772734440993360000,1.63735986328125,8.633491516113281,-4.795586109161377,1.7070658206939697
1772734441003402200,1.64740234375,8.185775756835938,-4.8267107009887695,1.8171991109848022
1772734441013373700,1.657373779296875,7.9631147384643555,-5.0685248374938965,1.9153614044189453
1772734441033429800,1.6774296875,7.860164165496826,-4.994304656982422,1.8195933103561401
1772734441043465000,1.68746484375,7.936778545379639,-4.886565685272217,1.6328455209732056
1772734441053441800,1.69744189453125,8.202534675598145,-4.750096321105957,1.5921441316604614
1772734441063783400,1.707783447265625,8.346187591552734,-4.738125324249268,1.525106430053711
1772734441073642200,1.717642333984375,8.489839553833008,-4.575319290161133,1.5107412338256836
1772734441083524400,1.7275244140625,8.619126319885254,-4.455609321594238,1.479616641998291
1772734441093501000,1.7375009765625,8.798690795898438,-4.484339714050293,1.4844050407409668
1772734441103522600,1.7475224609375,8.607154846191406,-4.4532151222229,1.6136919260025024
1772734441113552100,1.75755224609375,8.252813339233398,-4.520252704620361,1.6519991159439087
1772734441133585200,1.777585205078125,8.382100105285645,-4.584896087646484,1.599326729774475
1772734441145243600,1.78924365234375,8.523358345031738,-4.546588897705078,1.5203180313110352
1772734441153639200,1.79763916015625,8.738836288452148,-4.290409564971924,1.4700398445129395
1772734441163989800,1.80798974609375,8.937555313110352,-4.01268196105957,1.3982137441635132
1772734441173666300,1.817666259765625,9.038111686706543,-3.97916316986084,1.3623007535934448
1772734441183686400,1.827686279296875,8.882488250732422,-3.9001545906066895,1.3024457693099976
1772734441193694200,1.837694091796875,8.820239067077637,-4.077325344085693,1.3335703611373901
1772734441203729700,1.847729736328125,8.621520042419434,-4.175487995147705,1.41257905960083
1772734441213701400,1.857701416015625,8.547300338745117,-4.304774761199951,1.4748282432556152
1772734441223720700,1.867720703125,8.480262756347656,-4.28322696685791,1.5490485429763794
1772734441243763200,1.88776318359375,9.016563415527344,-4.1395745277404785,1.4963760375976562
1772734441253735700,1.897735595703125,9.071630477905273,-3.971980571746826,1.4389152526855469
1772734441264077600,1.90807763671875,9.08838939666748,-3.9600095748901367,1.3886369466781616
1772734441273784000,1.9177841796875,9.241618156433105,-3.8546648025512695,1.3838485479354858
1772734441284435500,1.928435546875,9.141061782836914,-3.869029998779297,1.4628572463989258
1772734441293802200,1.93780224609375,9.05247688293457,-3.8594532012939453,1.525106430053711
1772734441306307800,1.950307861328125,9.05247688293457,-3.821146011352539,1.556231141090393
1772734441313860600,1.957860595703125,8.60236644744873,-3.778050184249878,1.6424223184585571
1772734441323904300,1.967904296875,8.401253700256348,-4.091690540313721,1.6927006244659424
1772734441343907000,1.987906982421875,8.425195693969727,-4.414907932281494,1.6352397203445435
1772734441353923000,1.997923095703125,8.53293514251709,-4.4532151222229,1.5873557329177856
1772734441364283600,2.00828369140625,8.470685958862305,-4.299986362457275,1.625662922859192
1772734441373941000,2.01794091796875,8.571242332458496,-4.180276393890381,1.6639702320098877
1772734441383958800,2.027958740234375,8.588001251220703,-4.223371982574463,1.7621324062347412
1772734441393962800,2.037962646484375,8.537723541259766,-4.520252704620361,1.7860745191574097
1772734441403995000,2.047994873046875,8.418013572692871,-4.651933670043945,1.8267759084701538
1772734441413981000,2.05798095703125,8.29830265045166,-4.675876140594482,1.86508309841156
1772734441424001800,2.068001708984375,8.327033042907715,-4.584896087646484,1.9823989868164062
1772734441434012400,2.078012451171875,8.303091049194336,-4.522646903991699,1.8962076902389526
1772734441454026800,2.09802685546875,8.516175270080566,-4.137180328369141,1.8076223134994507
1772734441465945900,2.10994580078125,8.683769226074219,-4.120420932769775,1.7908629179000854
1772734441474068000,2.11806787109375,8.671798706054688,-4.046200752258301,1.7357962131500244
1772734441484104000,2.12810400390625,8.647856712341309,-4.213795185089111,1.7262194156646729
1772734441494084600,2.138084716796875,8.611943244934082,-4.288015365600586,1.745373010635376
1772734441504114200,2.1481142578125,8.655038833618164,-4.218583583831787,1.680729627609253
1772734441514150000,2.15814990234375,8.564059257507324,-4.247313976287842,1.6089035272598267
1772734441524200200,2.1682001953125,8.516175270080566,-4.2975921630859375,1.5849615335464478
1772734441534188000,2.17818798828125,8.686163902282715,-4.357447147369385,1.580173134803772
1772734441554236200,2.198236083984375,8.939949035644531,-4.230554580688477,1.556231141090393
1772734441564607000,2.20860693359375,8.975862503051758,-4.256890773773193,1.460463047027588
1772734441574284000,2.218283935546875,8.927978515625,-4.242525577545166,1.4173674583435059
1772734441584317400,2.2283173828125,8.851364135742188,-4.180276393890381,1.3982137441635132
1772734441594321400,2.2383212890625,8.78432559967041,-4.23773717880249,1.3958195447921753
1772734441604985300,2.2489853515625,8.62391471862793,-4.1611223220825195,1.5322890281677246
1772734441614362400,2.2583623046875,8.53532886505127,-4.0964789390563965,1.4724340438842773
1772734441626890000,2.270889892578125,8.614337921142578,-4.062960147857666,1.455674648284912
1772734441634442000,2.27844189453125,8.614337921142578,-4.189853191375732,1.50355863571167
1772734441654485200,2.2984853515625,8.640673637390137,-4.3191399574279785,1.5610195398330688
1772734441664827100,2.3088271484375,8.647856712341309,-4.261679172515869,1.6089035272598267
1772734441684597500,2.328597412109375,8.676587104797363,-4.141968727111816,1.53707754611969
1772734441694593500,2.338593505859375,8.702922821044922,-4.082113742828369,1.6112977266311646
1772734441704656100,2.34865625,8.738836288452148,-4.089296340942383,1.6855180263519287
1772734441714664000,2.358663818359375,8.585607528686523,-4.077325344085693,1.6639702320098877
1772734441724718300,2.36871826171875,8.544905662536621,-4.163516521453857,1.7501614093780518
1772734441734708700,2.378708740234375,8.482656478881836,-4.194641590118408,1.8100165128707886
1772734441744754700,2.388754638671875,8.427590370178223,-4.323928356170654,1.8555063009262085
1772734441754780200,2.3987802734375,8.453926086425781,-4.398148536682129,1.742978811264038
1772734441765757200,2.409757080078125,8.554482460021973,-4.338293552398682,1.7118542194366455
1772734441774830000,2.418830078125,8.619126319885254,-4.278438568115234,1.8052281141281128
1772734441786496500,2.43049658203125,8.69095230102539,-4.331110954284668,1.7741034030914307
1772734441794912800,2.438912841796875,8.65982723236084,-4.137180328369141,1.7836803197860718
1772734441804962800,2.448962890625,8.638279914855957,-4.201824188232422,1.8411411046981812
1772734441814945500,2.458945556640625,8.5903959274292,-4.122815132141113,1.8124107122421265
1772734441824974800,2.468974853515625,8.554482460021973,-4.24970817565918,1.800439715385437
1772734441835001600,2.479001708984375,8.523358345031738,-4.225766181945801,1.8363527059555054
1772734441845052200,2.48905224609375,8.504204750061035,-4.302380561828613,1.8052281141281128
1772734441855030800,2.49903076171875,8.530540466308594,-4.252102375030518,1.8531121015548706
1772734441875072000,2.519072021484375,8.47547435760498,-4.1874589920043945,1.8339585065841675
1772734441885125000,2.529125,8.40843677520752,-4.106055736541748,1.7621324062347412
1772734441895105800,2.539105712890625,8.516175270080566,-4.173093795776367,1.8052281141281128
1772734441905137400,2.549137451171875,8.492233276367188,-4.2090067863464355,1.7932571172714233
1772734441915168000,2.55916796875,8.362946510314941,-4.223371982574463,1.8411411046981812
1772734441925825500,2.569825439453125,8.44434928894043,-4.261679172515869,1.824381709098816
1772734441935194600,2.579194580078125,8.523358345031738,-4.302380561828613,1.7381904125213623
1772734441947721200,2.59172119140625,8.520963668823242,-4.422090530395508,1.6352397203445435
1772734441955264500,2.599264404296875,8.616731643676758,-4.393360137939453,1.678335428237915
1772734441975306200,2.61930615234375,8.611943244934082,-4.4939165115356445,1.8698714971542358
1772734441985340200,2.629340087890625,8.56884765625,-4.51067590713501,1.8602946996688843
1772734441995351300,2.639351318359375,8.47786808013916,-4.5154643058776855,1.8986018896102905
1772734442005401900,2.64940185546875,8.492233276367188,-4.58968448638916,1.8555063009262085
1772734442015383600,2.659383544921875,8.449137687683105,-4.402936935424805,1.7884687185287476
1772734442025416200,2.669416259765625,8.544905662536621,-4.455609321594238,1.8363527059555054
1772734442035483100,2.679483154296875,8.60236644744873,-4.417302131652832,1.742978811264038
1772734442045474600,2.689474609375,8.62391471862793,-4.3861775398254395,1.7070658206939697
1772734442055452000,2.699451904296875,8.53532886505127,-4.398148536682129,1.6519991159439087
1772734442065791200,2.709791259765625,8.451532363891602,-4.448426723480225,1.7381904125213623
1772734442086180900,2.730180908203125,8.518569946289062,-4.458003520965576,1.7908629179000854
1772734442095561000,2.73956103515625,8.525752067565918,-4.400542736053467,1.6974890232086182
1772734442107206100,2.7512060546875,8.487444877624512,-4.3406877517700195,1.764526605606079
1772734442115641300,2.759641357421875,8.470685958862305,-4.367023944854736,1.7381904125213623
1772734442125702000,2.769701904296875,8.53293514251709,-4.309563159942627,1.7357962131500244
1772734442135704600,2.77970458984375,8.446743965148926,-4.311957359313965,1.7381904125213623
1772734442145743000,2.7897431640625,8.506598472595215,-4.376600742340088,1.7118542194366455
1772734442155768300,2.799768310546875,8.470685958862305,-4.410119533538818,1.599326729774475
1772734442166135000,2.810135009765625,8.53532886505127,-4.424484729766846,1.6376339197158813
1772734442175816000,2.81981591796875,8.492233276367188,-4.443638324737549,1.6519991159439087
1772734442195903000,2.839903076171875,8.480262756347656,-4.4939165115356445,1.723825216293335
1772734442205968000,2.8499677734375,8.453926086425781,-4.402936935424805,1.6879122257232666
1772734442215968800,2.85996875,8.394071578979492,-4.4532151222229,1.7094600200653076
1772734442226013400,2.870013427734375,8.439560890197754,-4.481945514678955,1.6519991159439087
1772734442236032300,2.8800322265625,8.415618896484375,-4.54419469833374,1.6352397203445435
1772734442246711600,2.890711669921875,8.429984092712402,-4.541800498962402,1.6615760326385498
1772734442256100900,2.900100830078125,8.628703117370605,-4.4939165115356445,1.623268723487854
1772734442268974800,2.912974853515625,8.525752067565918,-4.501099109649658,1.656787633895874
1772734442276449800,2.92044970703125,8.403648376464844,-4.469974517822266,1.647210717201233
1772734442296271600,2.940271728515625,8.540117263793945,-4.4723687171936035,1.6112977266311646
1772734442306322700,2.95032275390625,8.528146743774414,-4.469974517822266,1.644816517829895
1772734442316369000,2.960368896484375,8.523358345031738,-4.474762916564941,1.5897499322891235
1772734442326436400,2.970436279296875,8.5903959274292,-4.462791919708252,1.6112977266311646
1772734442336424400,2.980424560546875,8.506598472595215,-4.412513732910156,1.6519991159439087
1772734442346461700,2.990461669921875,8.418013572692871,-4.5394062995910645,1.6543933153152466
1772734442356476400,3.000476318359375,8.458714485168457,-4.596867084503174,1.6663644313812256
1772734442366839600,3.010839599609375,8.42040729522705,-4.680664539337158,1.7118542194366455
1772734442376513500,3.020513427734375,8.245630264282227,-4.6255974769592285,1.7262194156646729
1772734442386545200,3.030545166015625,8.219294548034668,-4.63517427444458,1.824381709098816
1772734442416589600,3.060589599609375,8.391676902770996,-4.654327869415283,1.678335428237915
1772734442428258800,3.0722587890625,8.396465301513672,-4.675876140594482,1.764526605606079
1772734442436655600,3.080655517578125,8.35097599029541,-4.659116744995117,1.8171991109848022
1772734442446702800,3.090702880859375,8.334216117858887,-4.6950297355651855,1.8555063009262085
1772734442456681500,3.100681396484375,8.374917984008789,-4.649539470672607,1.8842366933822632
1772734442467058400,3.111058349609375,8.432378768920898,-4.764461517333984,1.845929503440857
1772734442476796000,3.1207958984375,8.4108304977417,-4.764461517333984,1.8315643072128296
1772734442486900500,3.130900390625,8.372523307800293,-4.683058738708496,1.6112977266311646
1772734442496930000,3.140929931640625,8.362946510314941,-4.683058738708496,1.6184803247451782
1772734442517061400,3.161061279296875,8.389283180236816,-4.774038314819336,1.6711528301239014
1772734442527154400,3.171154541015625,8.4108304977417,-4.862623691558838,1.6519991159439087
1772734442537182000,3.181181884765625,8.458714485168457,-4.726154327392578,1.625662922859192
1772734442547265300,3.191265380859375,8.38449478149414,-4.747702121734619,1.6879122257232666
1772734442557315800,3.20131591796875,8.446743965148926,-4.656722068786621,1.644816517829895
1772734442568331800,3.212331787109375,8.44195556640625,-4.565742492675781,1.6065093278884888
1772734442577450200,3.2214501953125,8.398859977722168,-4.455609321594238,1.656787633895874
1772734442590010000,3.234010009765625,8.279149055480957,-4.455609321594238,1.5203180313110352
1772734442597585000,3.2415849609375,8.379706382751465,-4.577713489532471,1.6065093278884888
1772734442617706800,3.261706787109375,8.255207061767578,-4.390965938568115,1.6496049165725708
1772734442627791400,3.271791259765625,8.358158111572266,-4.41969633102417,1.647210717201233
1772734442637807900,3.281807861328125,8.267178535461426,-4.469974517822266,1.5705963373184204
1772734442647845000,3.29184521484375,8.259995460510254,-4.663905143737793,1.556231141090393
1772734442657846300,3.30184619140625,8.152256965637207,-4.757278919219971,1.5322890281677246
1772734442668220000,3.312219970703125,8.267178535461426,-4.886565685272217,1.5945383310317993
1772734442677961700,3.321961669921875,8.24084186553955,-4.944026470184326,1.6328455209732056
1772734442688038700,3.33203857421875,8.221688270568848,-4.884171485900879,1.745373010635376
1772734442698085600,3.342085693359375,8.257601737976074,-4.850652694702148,1.7621324062347412
1772734442708179000,3.352178955078125,8.310274124145508,-4.790797710418701,1.702277421951294
1772734442738353400,3.382353515625,8.224082946777344,-4.843470096588135,1.8818424940109253
1772734442750046000,3.3940458984375,8.128314971923828,-4.850652694702148,1.9081788063049316
1772734442758506200,3.40250634765625,8.195352554321289,-5.008669853210449,1.8818424940109253
1772734442768892700,3.412892578125,8.291120529174805,-5.056553840637207,1.8962076902389526
1772734442778622200,3.422622314453125,8.286332130432129,-4.963180065155029,1.8722656965255737
1772734442788706800,3.432706787109375,8.255207061767578,-4.879383087158203,1.7956513166427612
1772734442798726700,3.4427265625,8.305485725402832,-4.81473970413208,1.7812861204147339
1772734442808798000,3.4527978515625,8.334216117858887,-4.8482584953308105,1.7764976024627686
1772734442828933400,3.472933349609375,8.274360656738281,-4.7620673179626465,1.7884687185287476
1772734442838961400,3.48296142578125,8.255207061767578,-4.795586109161377,1.800439715385437
1772734442849038600,3.49303857421875,8.233659744262695,-4.8267107009887695,1.8100165128707886
1772734442859054300,3.503054443359375,8.360552787780762,-4.8937482833862305,1.7525556087493896
1772734442869425000,3.5134248046875,8.339004516601562,-4.855441093444824,1.6974890232086182
1772734442879119400,3.523119384765625,8.252813339233398,-4.912901878356934,1.7932571172714233
1772734442889807400,3.533807373046875,8.38449478149414,-4.896142482757568,1.7070658206939697
1772734442899243800,3.543243896484375,8.456320762634277,-4.900930881500244,1.6855180263519287
1772734442911805400,3.555805419921875,8.360552787780762,-4.881777286529541,1.6519991159439087
1772734442919382300,3.56338232421875,8.38688850402832,-4.8722004890441895,1.5610195398330688
1772734442929465900,3.5734658203125,8.329427719116211,-4.8937482833862305,1.6136919260025024
1772734442939517200,3.58351708984375,8.463502883911133,-4.778826713562012,1.6089035272598267
1772734442949610200,3.5936103515625,8.492233276367188,-4.730942726135254,1.6903064250946045
1772734442959646000,3.60364599609375,8.578424453735352,-4.745307922363281,1.599326729774475
1772734442970023200,3.614023193359375,8.537723541259766,-4.726154327392578,1.6089035272598267
1772734442979713300,3.62371337890625,8.540117263793945,-4.733336925506592,1.6615760326385498
1772734442989766100,3.63376611328125,8.465897560119629,-4.754884719848633,1.6927006244659424
1772734442999763200,3.64376318359375,8.382100105285645,-4.616020679473877,1.6280571222305298
1772734443009793300,3.653793212890625,8.389283180236816,-4.697423934936523,1.7286136150360107
1772734443019794000,3.6637939453125,8.465897560119629,-4.730942726135254,1.656787633895874
1772734443029845000,3.673844970703125,8.540117263793945,-4.831499099731445,1.6328455209732056
1772734443050493700,3.69449365234375,8.712499618530273,-4.697423934936523,1.556231141090393
1772734443059884000,3.703884033203125,8.899248123168945,-4.797980308532715,1.5442601442337036
1772734443071881000,3.715880859375,9.155426979064941,-4.874594688415527,1.4628572463989258
1772734443079950600,3.72395068359375,9.215282440185547,-4.888959884643555,1.4628572463989258
1772734443089991400,3.733991455078125,9.342175483703613,-4.764461517333984,1.4891934394836426
1772734443099996000,3.743995849609375,9.442731857299805,-4.754884719848633,1.556231141090393
1772734443110046200,3.754046142578125,9.624691009521484,-4.618414878845215,1.6376339197158813
1772734443120059400,3.764059326171875,9.794678688049316,-4.532223701477051,1.7334020137786865
1772734443130090800,3.7740908203125,9.708487510681152,-4.19224739074707,1.8507179021835327
1772734443150159000,3.7941591796875,9.84256362915039,-3.9911341667175293,1.8938134908676147
1772734443160180000,3.804179931640625,9.923966407775879,-3.931279182434082,1.9488801956176758
1772734443170569000,3.81456884765625,9.907206535339355,-3.9600095748901367,1.8507179021835327
1772734443180297500,3.82429736328125,9.964667320251465,-3.8953661918640137,2.0422539710998535
1772734443190381300,3.83438134765625,10.02452278137207,-3.780444383621216,2.0398597717285156
1772734443200404700,3.84440478515625,10.06043529510498,-3.576937437057495,2.169146776199341
1772734443211088600,3.855088623046875,10.077195167541504,-3.529053211212158,2.2697031497955322
1772734443220518400,3.864518310546875,9.835380554199219,-3.5721490383148193,2.3942017555236816
1772734443233095200,3.87709521484375,9.828198432922363,-3.711012601852417,2.4229321479797363
1772734443240664800,3.884664794921875,9.813833236694336,-3.8163576126098633,2.564189910888672
1772734443260777700,3.90477783203125,9.569623947143555,-3.7397429943084717,2.7461493015289307
1772734443271181000,3.91518115234375,9.744400978088379,-3.6128504276275635,2.8850131034851074
1772734443280900400,3.924900390625,9.813833236694336,-3.5218706130981445,2.8826189041137695
1772734443290969300,3.93496923828125,9.871294021606445,-3.378218650817871,2.9065608978271484
1772734443301019400,3.945019287109375,9.892841339111328,-3.354276657104492,2.779668092727661
1772734443311114500,3.955114501953125,9.560047149658203,-3.2417490482330322,2.980781078338623
1772734443321136600,3.96513671875,9.097966194152832,-3.114856481552124,3.0765492916107178
1772734443331212800,3.975212890625,8.676587104797363,-3.0837318897247314,3.162740468978882
1772734443341263600,3.985263671875,8.413225173950195,-3.179499864578247,3.3231520652770996
1772734443351332000,3.99533203125,8.334216117858887,-3.318363666534424,3.3686418533325195
1772734443372366800,4.016366943359375,8.597578048706055,-3.0526070594787598,3.77565598487854
1772734443381504300,4.025504150390625,8.956708908081055,-2.695871114730835,3.955221176147461
1772734443393187000,4.03718701171875,9.08838939666748,-2.4588451385498047,4.20421838760376
1772734443401653000,4.045653076171875,9.188945770263672,-2.0805611610412598,4.278438568115234
1772734443411725000,4.05572509765625,9.351752281188965,-2.027888774871826,4.441244125366211
1772734443421760800,4.0657607421875,9.619902610778809,-1.8746598958969116,4.5154643058776855
1772734443431858000,4.07585791015625,9.57441234588623,-1.9321208000183105,4.865017890930176
1772734443441875200,4.085875244140625,9.876082420349121,-2.0039467811584473,5.114014625549316
1772734443451953400,4.095953369140625,9.979032516479492,-1.9608511924743652,5.540182590484619
1772734443472414500,4.11641455078125,10.02691650390625,-1.7573440074920654,6.189011573791504
1772734443482119400,4.126119384765625,9.720458984375,-1.6280571222305298,6.347028732299805
1772734443492147200,4.136147216796875,9.495404243469238,-1.5753847360610962,6.4164605140686035
1772734443502132500,4.146132568359375,9.354146003723145,-1.4867992401123047,6.540958881378174
1772734443512164900,4.156164794921875,9.239224433898926,-1.1563993692398071,6.507440090179443
1772734443522203000,4.166202880859375,8.99740982055664,-0.9241618514060974,6.528987884521484
1772734443532806000,4.176805908203125,9.078812599182129,-0.8212111592292786,6.71334171295166
1772734443542183700,4.18618359375,8.901641845703125,-0.7254431247711182,6.691793918609619
1772734443554699000,4.198698974609375,8.698134422302246,-0.586579442024231,6.682217121124268
1772734443572555000,4.216554931640625,8.248024940490723,-0.8020575642585754,6.308721542358398
1772734443592262100,4.23626220703125,7.568071365356445,-1.0893617868423462,5.796362400054932
1772734443602233600,4.246233642578125,7.3669586181640625,-1.115697979927063,5.57370138168335
1772734443612244000,4.256243896484375,7.292738437652588,-0.9696516990661621,5.434837818145752
1772734443622248400,4.26624853515625,7.0317702293396,-0.7326257228851318,5.04218864440918
1772734443632310300,4.276310302734375,6.715735912322998,-0.5722141861915588,4.81473970413208
1772734443642311700,4.286311767578125,6.433219909667969,-0.4405331015586853,4.651933670043945
1772734443652363000,4.296363037109375,5.995080947875977,-0.22266076505184174,4.350264549255371
1772734443672763600,4.316763671875,5.497087001800537,-0.016759412363171577,3.711012601852417
1772734443682480000,4.326480224609375,5.5976433753967285,-0.11252748221158981,3.512293815612793
1772734443693143600,4.3371435546875,5.793968200683594,-0.48602294921875,3.35667085647583
1772734443702622500,4.34662255859375,5.810727596282959,-0.8020575642585754,2.942473888397217
1772734443714265900,4.358265869140625,5.746084213256836,-1.015141487121582,2.406172752380371
1772734443722649900,4.36664990234375,5.5976433753967285,-0.9074024558067322,1.900996208190918
1772734443732701000,4.376700927734375,5.69580602645874,-0.6488286852836609,1.3192051649093628
1772734443742717000,4.386717041015625,5.92325496673584,-0.30885201692581177,0.7661445140838623
1772734443752787500,4.396787353515625,6.01423454284668,0.2082955539226532,0.3902548849582672
1772734443762846500,4.406846435546875,6.045359134674072,0.6105214357376099,0.09816227108240128
1772734443782877400,4.42687744140625,6.229712963104248,1.2880805730819702,-0.507570743560791
1772734443792945200,4.436945068359375,6.603208065032959,1.357512354850769,-0.6751648783683777
1772734443802943700,4.44694384765625,6.845022678375244,1.3838485479354858,-0.9816226959228516
1772734443812995000,4.4569951171875,7.036558628082275,1.2545616626739502,-1.4460978507995605
1772734443823022800,4.46702294921875,7.419631004333496,1.1348515748977661,-1.8626888990402222
1772734443833100300,4.477100341796875,7.814674377441406,1.2617442607879639,-2.164358377456665
1772734443843120400,4.487120361328125,7.915230751037598,1.845929503440857,-2.676717519760132
1772734443853785900,4.497785888671875,8.032546997070312,2.583343744277954,-2.9712042808532715
1772734443863259600,4.507259765625,8.13789176940918,3.514688014984131,-3.2537200450897217
1772734443876088800,4.5200888671875,8.62391471862793,5.6191911697387695,-3.5386300086975098
1772734443883656400,4.527656494140625,8.89685344696045,6.524199485778809,-3.4620156288146973
1772734443893356000,4.53735595703125,9.186552047729492,6.856993675231934,-3.529053211212158
1772734443903380500,4.54738037109375,9.282320022583008,6.596025466918945,-3.4165258407592773
1772734443913451000,4.557450927734375,9.069235801696777,6.165069580078125,-3.308786630630493
1772734443923484400,4.567484375,8.793902397155762,5.781997203826904,-3.205836057662964
1772734443933532700,4.57753271484375,8.573636054992676,5.657498836517334,-3.184288263320923
1772734443943571700,4.58757177734375,8.616731643676758,5.580883979797363,-3.3279404640197754
1772734443953643000,4.59764306640625,8.683769226074219,5.439626216888428,-3.3686418533325195
1772734443963656200,4.60765625,8.49941635131836,5.286397457122803,-3.3925838470458984
1772734443983724500,4.627724609375,7.95832633972168,4.565742492675781,-2.8443117141723633
1772734443993796900,4.637796875,7.790732383728027,4.3861775398254395,-2.47560453414917
1772734444003796700,4.647796630859375,7.812280178070068,4.225766181945801,-2.161964178085327
1772734444014455000,4.658455078125,7.86734676361084,4.247313976287842,-1.8195933103561401
1772734444023863800,4.66786376953125,7.951143741607666,4.24970817565918,-1.7310078144073486
1772734444035521300,4.679521240234375,8.066065788269043,4.441244125366211,-1.8291701078414917
1772734444043958300,4.687958251953125,8.152256965637207,4.517858505249023,-1.9273324012756348
1772734444054005800,4.698005859375,8.394071578979492,4.632780075073242,-2.207453966140747
1772734444064032800,4.70803271484375,8.719682693481445,4.72376012802124,-2.408566951751709
1772734444084109600,4.728109619140625,8.547300338745117,4.8051629066467285,-2.4205379486083984
1772734444094166500,4.73816650390625,8.597578048706055,4.8051629066467285,-2.3032219409942627
1772734444104186400,4.748186279296875,8.47547435760498,4.809951305389404,-2.2888567447662354
1772734444114256100,4.758256103515625,8.647856712341309,4.821922302246094,-2.434903144836426
1772734444124269600,4.76826953125,8.669404029846191,4.934449672698975,-2.5019407272338867
1772734444134331100,4.7783310546875,8.741230010986328,4.924872875213623,-2.535459518432617
1772734444144402400,4.78840234375,8.851364135742188,4.850652694702148,-2.631227731704712
1772734444154367000,4.798366943359375,8.959102630615234,4.69024133682251,-2.6408045291900635
1772734444164353500,4.808353515625,8.609549522399902,4.692635536193848,-2.9496564865112305
1772734444175294000,4.8192939453125,8.123526573181152,4.639962673187256,-3.138798475265503
1772734444184379100,4.828379150390625,7.723694801330566,4.697423934936523,-3.3207578659057617
1772734444196899600,4.840899658203125,7.994239330291748,4.702212333679199,-3.313575267791748
1772734444204415700,4.848415771484375,8.224082946777344,4.924872875213623,-3.4093432426452637
1772734444214434000,4.85843408203125,8.094796180725098,5.5545477867126465,-3.44765043258667
1772734444224433200,4.86843310546875,7.965508937835693,6.1267619132995605,-3.4979286193847656
1772734444234468400,4.87846826171875,8.042123794555664,6.552929878234863,-3.471592426300049
1772734444244441600,4.888441650390625,7.7213006019592285,6.744466304779053,-3.624821424484253
1772734444254671600,4.898671630859375,7.479485988616943,6.912060260772705,-4.000710964202881
1772734444264464000,4.9084638671875,7.285555839538574,6.756437301635742,-4.201824188232422
1772734444274816500,4.91881640625,7.196970462799072,6.567295074462891,-4.326322555541992
1772734444294514200,4.93851416015625,7.532158374786377,6.308721542358398,-4.3191399574279785
1772734444304532000,4.948531982421875,7.644686222076416,6.344634532928467,-4.292803764343262
1772734444314579200,4.9585791015625,7.297526836395264,6.385335922241211,-4.129997730255127
1772734444324585500,4.96858544921875,7.115567684173584,6.287173748016357,-3.8786067962646484
1772734444335220200,4.97922021484375,6.993463039398193,6.121973514556885,-3.7924153804779053
1772734444344599600,4.988599609375,6.691793918609619,5.889736175537109,-3.7397429943084717
1772734444356272000,5.000272216796875,6.631938934326172,5.74129581451416,-3.97916316986084
1772734444364626200,5.008626220703125,6.768408298492432,5.51624059677124,-4.144362926483154
1772734444374950100,5.0189501953125,6.823474884033203,5.336675643920898,-4.256890773773193
1772734444384619300,5.028619384765625,7.141903877258301,5.051765441894531,-4.182670593261719
1772734444404635600,5.0486357421875,7.757213592529297,5.16429328918457,-4.345476150512695
1772734444414646500,5.058646484375,7.972691535949707,5.336675643920898,-4.572925090789795
1772734444424638700,5.068638671875,8.056488990783691,5.521028995513916,-4.817133903503418
1772734444434662000,5.078661865234375,7.982268333435059,5.698200225830078,-4.927267074584961
1772734444444622800,5.088622802734375,7.728483200073242,5.726930618286133,-4.699818134307861
1772734444454639400,5.098639404296875,7.529764175415039,5.770026206970215,-4.4292731285095215
1772734444464631800,5.1086318359375,7.467514991760254,5.779603004455566,-4.153939723968506
1772734444474973000,5.118972900390625,7.668628215789795,5.904101371765137,-3.976768970489502
1772734444484630800,5.128630859375,7.836222171783447,5.9735331535339355,-3.9240965843200684
1772734444504722200,5.14872216796875,8.022970199584961,5.822698593139648,-4.223371982574463
1772734444517281000,5.161281005859375,7.711723804473877,5.746084213256836,-4.23773717880249
1772734444524829000,5.168828857421875,7.479485988616943,5.779603004455566,-4.110844135284424
1772734444534878000,5.1788779296875,7.299921035766602,5.834669589996338,-3.9839515686035156
1772734444544903200,5.188903076171875,7.33583402633667,6.050147533416748,-3.646369218826294
1772734444554973700,5.1989736328125,7.232883453369141,6.22731876373291,-3.5386300086975098
1772734444564971500,5.208971435546875,7.141903877258301,6.124367713928223,-3.6966474056243896
1772734444575337200,5.219337158203125,7.062894821166992,5.683835029602051,-3.8355112075805664
1772734444585052400,5.229052490234375,7.371747016906738,5.178658485412598,-4.01268196105957
1772734444605126000,5.2491259765625,7.465120792388916,5.386953830718994,-4.129997730255127
1772734444615172000,5.259172119140625,6.550535678863525,5.767632007598877,-3.993528366088867
1772734444625196300,5.2691962890625,6.543353080749512,5.8203043937683105,-4.036623954772949
1772734444635254500,5.279254638671875,7.12035608291626,5.853823184967041,-4.304774761199951
1772734444645251600,5.28925146484375,7.671022415161133,5.784391403198242,-4.3406877517700195
1772734444655905500,5.299905517578125,8.17141056060791,5.25527286529541,-4.199429988861084
1772734444665320700,5.30932080078125,7.630321025848389,5.07570743560791,-4.110844135284424
1772734444677285400,5.321285400390625,7.187393665313721,5.0876784324646,-4.120420932769775
1772734444686422500,5.330422607421875,7.24485445022583,5.195417881011963,-4.163516521453857
1772734444716560100,5.36056005859375,7.024587631225586,5.676652431488037,-3.3039982318878174
1772734444726583600,5.37058349609375,7.173028469085693,5.805939197540283,-3.227383852005005
1772734444736621300,5.380621337890625,6.98628044128418,6.287173748016357,-3.2369606494903564
1772734444746641200,5.39064111328125,7.005434036254883,6.4595561027526855,-3.112462282180786
1772734444756709000,5.400709228515625,7.433996200561523,6.081272125244141,-3.1459810733795166
1772734444766725000,5.41072509765625,8.42040729522705,5.655104637145996,-3.31118106842041
1772734444777087700,5.421087646484375,9.10993766784668,5.535394191741943,-3.5242648124694824
1772734444786800600,5.430800537109375,9.148244857788086,5.702988624572754,-3.737348794937134
1772734444796873000,5.440873046875,8.918401718139648,6.167463779449463,-3.665522813796997
1772734444806889500,5.450889404296875,9.02135181427002,6.562506675720215,-3.4524388313293457
1772734444817571600,5.461571533203125,8.698134422302246,7.036558628082275,-3.2393548488616943
1772734444826992600,5.47099267578125,8.130708694458008,7.362170219421387,-3.155557870864868
1772734444839554800,5.483554931640625,6.811503887176514,6.71334171295166,-3.160346269607544
1772734444848106200,5.492106201171875,4.098873138427734,3.665522813796997,-3.071760892868042
1772734444858173200,5.502173095703125,4.60165548324585,2.1811177730560303,-3.4979286193847656
1772734444868186400,5.512186279296875,7.6566572189331055,1.1516109704971313,-4.153939723968506
1772734444878552000,5.522552001953125,9.821015357971191,1.1085153818130493,-4.663905143737793
1772734444888281600,5.532281494140625,9.854534149169922,2.715024709701538,-4.587290287017822
1772734444898350300,5.542350341796875,9.188945770263672,4.680664539337158,-4.525041103363037
1772734444918425600,5.562425537109375,7.967903137207031,6.6127848625183105,-3.950432777404785
1772734444928454100,5.5724541015625,7.694964408874512,6.835445880889893,-3.713406801223755
1772734444938533400,5.582533447265625,7.287950038909912,6.3063273429870605,-3.773261785507202
1772734444948546600,5.592546630859375,6.943184852600098,5.3127336502075195,-3.8977603912353516
1772734444958605300,5.602605224609375,6.871358871459961,4.0533833503723145,-4.019864559173584
1772734444968627700,5.612627685546875,7.1706342697143555,2.9257144927978516,-4.565742492675781
1772734444979626200,5.623626220703125,7.881711959838867,1.9752163887023926,-4.7620673179626465
1772734444988724500,5.632724365234375,8.44195556640625,2.188300371170044,-4.522646903991699
1772734445000414700,5.644414794921875,8.564059257507324,3.4572272300720215,-4.484339714050293
1772734445008839200,5.652839111328125,8.506598472595215,4.3191399574279785,-4.309563159942627
1772734445018921000,5.6629208984375,8.65743350982666,4.311957359313965,-4.2975921630859375
1772734445028900000,5.672900146484375,9.08838939666748,3.8283286094665527,-4.367023944854736
1772734445038918000,5.68291796875,8.712499618530273,3.627215623855591,-4.280832767486572
1772734445048952800,5.692952880859375,8.310274124145508,3.751713991165161,-4.0533833503723145
1772734445059021600,5.703021484375,8.520963668823242,3.756502389907837,-3.6942532062530518
1772734445069028600,5.713028564453125,8.53293514251709,3.5242648124694824,-3.5218706130981445
1772734445079389700,5.7233896484375,8.216899871826172,3.3518824577331543,-3.6176388263702393
1772734445089110000,5.733110107421875,8.305485725402832,3.2537200450897217,-3.4739866256713867
1772734445099182000,5.74318212890625,8.224082946777344,3.251325845718384,-3.512293815612793
1772734445109192200,5.753192138671875,8.08282470703125,3.2561142444610596,-3.5889084339141846
1772734445119253200,5.763253173828125,7.948749542236328,3.227383852005005,-3.6607344150543213
1772734445129311500,5.7733115234375,7.864952564239502,3.361459255218506,-3.6750996112823486
1772734445139989200,5.7839892578125,7.888894557952881,3.665522813796997,-3.6128504276275635
1772734445149380400,5.79338037109375,7.951143741607666,3.7229835987091064,-3.5218706130981445
1772734445161916200,5.805916259765625,8.006210327148438,3.8283286094665527,-3.598485231399536
1772734445169486600,5.813486572265625,8.192957878112793,3.9647979736328125,-3.6343982219696045
1772734445179866400,5.823866455078125,8.497021675109863,3.9432501792907715,-3.7636849880218506
1772734445189563000,5.83356298828125,8.523358345031738,3.861847400665283,-3.845088005065918
1772734445199620400,5.843620361328125,8.406042098999023,3.825934410095215,-3.758896589279175
1772734445209643000,5.85364306640625,8.281543731689453,3.756502389907837,-3.957615375518799
1772734445219712500,5.86371240234375,8.1139497756958,3.663128614425659,-3.998316764831543
1772734445229724200,5.87372412109375,8.121131896972656,3.5697548389434814,-4.0964789390563965
1772734445239783000,5.883782958984375,8.248024940490723,3.646369218826294,-4.02465295791626
1772734445249809400,5.893809326171875,8.33182144165039,3.88818359375,-3.8714241981506348
1772734445259887400,5.903887451171875,8.47786808013916,4.015076160430908,-3.8091750144958496
1772734445269894700,5.913894775390625,8.360552787780762,4.177882194519043,-3.531447410583496
1772734445280257800,5.9242578125,8.468291282653809,4.426878929138184,-3.579331636428833
1772734445289978000,5.93397802734375,8.382100105285645,4.2329487800598145,-3.488351821899414
1772734445300655000,5.944655029296875,8.176198959350586,3.9408559799194336,-3.5745432376861572
1772734445310044700,5.954044677734375,8.157045364379883,3.7014358043670654,-3.6176388263702393
1772734445321696800,5.96569677734375,8.106766700744629,3.5482068061828613,-3.6080620288848877
1772734445330140400,5.974140380859375,8.176198959350586,3.600879430770874,-3.399766445159912
1772734445340208400,5.98420849609375,8.370129585266113,3.689464807510376,-3.423708438873291
1772734445350205400,5.994205322265625,8.743624687194824,3.7253777980804443,-3.490746021270752
1772734445360252400,6.00425244140625,8.911218643188477,3.734954595565796,-3.488351821899414
1772734445370284000,6.014283935546875,8.942343711853027,3.6966474056243896,-3.5482068061828613
1772734445380663800,6.024663818359375,8.78193187713623,3.643975019454956,-3.620033025741577
1772734445390350000,6.03435009765625,8.676587104797363,3.4955344200134277,-3.648763418197632
1772734445400399400,6.0443994140625,8.650250434875488,3.512293815612793,-3.552995204925537
1772734445410422000,6.054422119140625,8.825027465820312,3.4117374420166016,-3.5194764137268066
1772734445420499000,6.0644990234375,8.765172004699707,3.423708438873291,-3.514688014984131
1772734445440546300,6.08454638671875,8.858546257019043,3.5218706130981445,-3.464409828186035
1772734445450567200,6.094567138671875,8.829815864562988,3.552995204925537,-3.375824451446533
1772734445461357600,6.105357666015625,8.796297073364258,3.44765043258667,-3.3877954483032227
1772734445470642700,6.114642578125,8.674192428588867,3.337517261505127,-3.423708438873291
1772734445483515100,6.12751513671875,8.633491516113281,3.335123062133789,-3.426102638244629
1772734445491017500,6.135017578125,8.53293514251709,3.292027235031128,-3.383007049560547
1772734445500834600,6.14483447265625,8.418013572692871,3.3686418533325195,-3.4189200401306152
1772734445510842400,6.15484228515625,8.322244644165039,3.445256233215332,-3.4955344200134277
1772734445520872200,6.1648720703125,8.42040729522705,3.4955344200134277,-3.5242648124694824
1772734445540964400,6.18496435546875,8.453926086425781,3.6104562282562256,-3.600879430770874
1772734445550948600,6.194948486328125,8.437167167663574,3.6128504276275635,-3.6966474056243896
1772734445560991000,6.204990966796875,8.360552787780762,3.7397429943084717,-3.665522813796997
1772734445570991900,6.214991943359375,8.29590892791748,3.845088005065918,-3.6176388263702393
1772734445581375000,6.225375,8.202534675598145,3.88818359375,-3.450044631958008
1772734445591060700,6.235060791015625,8.188169479370117,3.861847400665283,-3.339911460876465
1772734445601099300,6.245099365234375,8.085219383239746,3.8307228088378906,-3.464409828186035
1772734445611116000,6.255115966796875,8.133103370666504,3.751713991165161,-3.5386300086975098
1772734445621794600,6.265794677734375,8.200140953063965,3.5865142345428467,-3.5960910320281982
1772734445631171600,6.275171630859375,8.439560890197754,3.627215623855591,-3.5889084339141846
1772734445642847000,6.286846923828125,8.564059257507324,3.60566782951355,-3.6511576175689697
1772734445651263700,6.295263671875,8.650250434875488,3.5458126068115234,-3.624821424484253
1772734445661350000,6.305349853515625,8.537723541259766,3.6535518169403076,-3.471592426300049
1772734445671346200,6.31534619140625,8.40843677520752,3.5721490383148193,-3.428496837615967
1772734445681705500,6.32570556640625,8.518569946289062,3.3925838470458984,-3.3710360527038574
1772734445691436000,6.33543603515625,8.700529098510742,3.2106244564056396,-3.428496837615967
1772734445701499100,6.3454990234375,8.705317497253418,3.361459255218506,-3.5027170181274414
1772734445711492000,6.3554921875,8.738836288452148,3.428496837615967,-3.603273630142212
1772734445721530000,6.365530029296875,8.983044624328613,3.5266590118408203,-3.5889084339141846
1772734445731538000,6.375537841796875,8.944737434387207,3.663128614425659,-3.5194764137268066
1772734445751595000,6.395594970703125,8.779537200927734,3.598485231399536,-3.361459255218506
1772734445761637600,6.4056376953125,8.705317497253418,3.397372245788574,-3.359065055847168
1772734445771655700,6.41565576171875,8.453926086425781,3.268085241317749,-3.3901896476745605
1772734445782631400,6.42663134765625,8.485051155090332,3.246537446975708,-3.3063924312591553
1772734445791705900,6.435705810546875,8.573636054992676,3.318363666534424,-3.3877954483032227
1772734445804250400,6.44825048828125,8.556877136230469,3.265691041946411,-3.397372245788574
1772734445811773400,6.4557734375,8.5903959274292,3.3686418533325195,-3.5625722408294678
1772734445821830400,6.465830322265625,8.473079681396484,3.426102638244629,-3.584120035171509
1772734445831809500,6.4758095703125,8.468291282653809,3.5697548389434814,-3.399766445159912
1772734445841841200,6.485841064453125,8.406042098999023,3.442862033843994,-3.3662476539611816
1772734445861919200,6.505919189453125,8.520963668823242,3.4596214294433594,-3.4117374420166016
1772734445871908400,6.515908447265625,8.516175270080566,3.4165258407592773,-3.4356794357299805
1772734445882257000,6.5262568359375,8.743624687194824,3.4787750244140625,-3.4548330307006836
1772734445891961900,6.5359619140625,8.674192428588867,3.464409828186035,-3.509899616241455
1772734445902020600,6.5460205078125,8.607154846191406,3.445256233215332,-3.708618402481079
1772734445912013300,6.556013427734375,8.516175270080566,3.294421434402466,-3.7014358043670654
1772734445922042400,6.56604248046875,8.645462036132812,3.1723172664642334,-3.778050184249878
1772734445932071200,6.5760712890625,8.710105895996094,3.35667085647583,-3.708618402481079
1772734445942727400,6.5867275390625,8.700529098510742,3.581725835800171,-3.6583402156829834
1772734445963752700,6.607752685546875,8.645462036132812,3.804386615753174,-3.5051112174987793
1772734445972199700,6.61619970703125,8.504204750061035,3.7469255924224854,-3.4404678344726562
1772734445982565400,6.6265654296875,8.434772491455078,3.665522813796997,-3.4117374420166016
1772734445992250400,6.63625048828125,8.389283180236816,3.445256233215332,-3.35667085647583
1772734446002294300,6.646294189453125,8.40843677520752,3.3039982318878174,-3.4093432426452637
1772734446012301300,6.65630126953125,8.38688850402832,3.224989652633667,-3.550601005554199
1772734446022353400,6.666353515625,8.525752067565918,3.0406360626220703,-3.5458126068115234
1772734446032336600,6.676336669921875,8.585607528686523,3.117250680923462,-3.6822822093963623
1772734446042377000,6.686376953125,8.674192428588867,3.2178070545196533,-3.6391866207122803
1772734446052392400,6.696392333984375,8.772355079650879,3.2369606494903564,-3.6822822093963623
1772734446082785000,6.726784912109375,8.585607528686523,3.3470940589904785,-3.4787750244140625
1772734446092635100,6.73663525390625,8.631096839904785,3.622427225112915,-3.4308910369873047
1772734446103151900,6.74715185546875,8.705317497253418,3.8786067962646484,-3.442862033843994
1772734446112540200,6.7565400390625,8.705317497253418,3.9001545906066895,-3.4596214294433594
1772734446125074000,6.769073974609375,8.60236644744873,3.84269380569458,-3.5266590118408203
1772734446132630000,6.776630126953125,8.47547435760498,3.756502389907837,-3.380612850189209
1772734446142707700,6.786707763671875,8.305485725402832,3.536235809326172,-3.268085241317749
1772734446152703500,6.796703369140625,8.185775756835938,3.584120035171509,-3.1292216777801514
1772734446162749000,6.8067490234375,8.133103370666504,3.4979286193847656,-3.205836057662964
1772734446183146000,6.82714599609375,8.04930591583252,3.28963303565979,-3.332728862762451
1772734446192839700,6.836839599609375,8.178592681884766,3.2609026432037354,-3.469198226928711
1772734446202887400,6.846887451171875,8.216899871826172,3.1962592601776123,-3.5865142345428467
1772734446212898300,6.856898193359375,8.413225173950195,3.157952070236206,-3.584120035171509
1772734446222963700,6.866963623046875,8.513781547546387,3.313575267791748,-3.663128614425659
1772734446232960300,6.876960205078125,8.588001251220703,3.3446998596191406,-3.5673606395721436
1772734446243010300,6.88701025390625,8.588001251220703,3.5051112174987793,-3.5482068061828613
1772734446253044000,6.8970439453125,8.549694061279297,3.536235809326172,-3.4308910369873047
1772734446263719400,6.907719482421875,8.678980827331543,3.4572272300720215,-3.4524388313293457
1772734446285111000,6.929111083984375,8.757989883422852,3.3231520652770996,-3.5027170181274414
1772734446293219600,6.937219482421875,8.841787338256836,3.4787750244140625,-3.550601005554199
1772734446303288600,6.94728857421875,8.96389102935791,3.6774938106536865,-3.7253777980804443
1772734446313287700,6.95728759765625,9.095572471618652,3.9193081855773926,-3.6822822093963623
1772734446323331800,6.967331787109375,9.150638580322266,4.175487995147705,-3.7277719974517822
1772734446333384000,6.977384033203125,8.856152534484863,4.235342979431152,-3.6822822093963623
1772734446343442000,6.98744189453125,8.710105895996094,4.110844135284424,-3.6152446269989014
1772734446353435000,6.997434814453125,8.611943244934082,4.067748546600342,-3.600879430770874
1772734446363479000,7.00747900390625,8.413225173950195,3.9217023849487305,-3.598485231399536
1772734446383894800,7.027894775390625,8.252813339233398,3.6990416049957275,-3.5936968326568604
1772734446393576200,7.037576171875,8.130708694458008,3.6535518169403076,-3.5170822143554688
1772734446403620400,7.047620361328125,8.180987358093262,3.5410242080688477,-3.73016619682312
1772734446413629200,7.057629150390625,8.068459510803223,3.507505416870117,-3.7612907886505127
1772734446424299500,7.068299560546875,8.08043098449707,3.406949043273926,-3.6750996112823486
1772734446433693000,7.07769287109375,8.164227485656738,3.3423056602478027,-3.7445313930511475
1772734446446222600,7.09022265625,8.276755332946777,3.2632968425750732,-3.691859006881714
1772734446453772800,7.097772705078125,8.362946510314941,3.117250680923462,-3.6750996112823486
1772734446463829500,7.10782958984375,8.406042098999023,2.8874073028564453,-3.706224203109741
1772734446473836500,7.11783642578125,8.547300338745117,2.827552318572998,-3.6367924213409424
1772734446484180000,7.128179931640625,8.53532886505127,2.9951462745666504,-3.6080620288848877
1772734446493911800,7.137911865234375,8.595184326171875,3.3494882583618164,-3.5458126068115234
1772734446503963100,7.147963134765625,8.573636054992676,3.5745432376861572,-3.5218706130981445
1772734446513922800,7.1579228515625,8.650250434875488,3.7038300037384033,-3.428496837615967
1772734446523956000,7.1679560546875,8.80587387084961,3.550601005554199,-3.421314239501953
1772734446533943000,7.177943115234375,8.607154846191406,3.5410242080688477,-3.5027170181274414
1772734446543967700,7.1879677734375,8.597578048706055,3.557783842086792,-3.5386300086975098
1772734446553921800,7.197921875,8.62630844116211,3.359065055847168,-3.7469255924224854
1772734446563922700,7.207922607421875,8.655038833618164,3.4572272300720215,-3.7924153804779053
1772734446573911000,7.2179111328125,8.908824920654297,3.4620156288146973,-3.8546648025512695
1772734446584864500,7.228864501953125,9.119514465332031,3.397372245788574,-3.847482204437256
1772734446605515300,7.249515380859375,9.342175483703613,3.734954595565796,-4.077325344085693
1772734446613926100,7.257926025390625,9.41400146484375,3.7469255924224854,-4.163516521453857
1772734446623963000,7.267962890625,9.406818389892578,3.9624037742614746,-4.0964789390563965
1772734446633922800,7.2779228515625,9.373299598693848,4.398148536682129,-4.046200752258301
1772734446643939000,7.28793896484375,9.543288230895996,4.788403511047363,-3.974374771118164
1772734446653955300,7.297955322265625,9.888052940368652,4.845864295959473,-3.8091750144958496
1772734446664020200,7.308020263671875,9.983820915222168,4.613626480102539,-3.8977603912353516
1772734446674015500,7.318015380859375,9.964667320251465,4.314351558685303,-4.019864559173584
1772734446684372200,7.328372314453125,9.830592155456543,4.043806552886963,-4.220977783203125
1772734446694114000,7.338114013671875,9.624691009521484,3.794809579849243,-4.165910720825195
1772734446704182300,7.348182373046875,9.57201862335205,3.5458126068115234,-4.072536945343018
1772734446714184700,7.358184814453125,9.428366661071777,3.428496837615967,-3.912125587463379
1772734446724230100,7.368230224609375,9.500192642211914,3.383007049560547,-3.7421371936798096
1772734446734274300,7.3782744140625,9.44752025604248,3.339911460876465,-3.4811692237854004
1772734446744949000,7.388948974609375,9.255983352661133,3.3470940589904785,-3.337517261505127
1772734446754334200,7.398334228515625,9.191340446472168,3.3039982318878174,-3.1459810733795166
1772734446766877200,7.410877197265625,9.165003776550293,3.251325845718384,-2.911349296569824
1772734446774431500,7.418431396484375,9.090784072875977,3.222595453262329,-2.7269957065582275
1772734446784805600,7.4288056640625,9.006986618041992,3.1052796840667725,-2.6144683361053467
1772734446794493000,7.438492919921875,8.968679428100586,2.9305028915405273,-2.516305923461914
1772734446804540400,7.44854052734375,9.062053680419922,2.8179752826690674,-2.5953147411346436
1772734446814552000,7.458552001953125,9.117119789123535,2.6815059185028076,-2.6647465229034424
1772734446824617700,7.46861767578125,9.10993766784668,2.7533318996429443,-2.698265314102173
1772734446834614800,7.47861474609375,9.193734169006348,2.937685489654541,-2.518700122833252
1772734446844660000,7.488659912109375,9.121908187866211,3.045424461364746,-2.190694570541382
1772734446854679600,7.498679443359375,9.155426979064941,3.265691041946411,-1.6950948238372803
1772734446864741400,7.508741455078125,9.169792175292969,3.179499864578247,-1.290474772453308
1772734446874739500,7.518739501953125,8.975862503051758,3.0526070594787598,-1.0749965906143188
1772734446885097000,7.529096923828125,8.889671325683594,2.87064790725708,-0.9361328482627869
1772734446894894300,7.538894287109375,8.710105895996094,2.8395233154296875,-0.9026140570640564
1772734446905488000,7.54948779296875,8.564059257507324,2.786850690841675,-0.7230489253997803
1772734446914892500,7.558892578125,8.425195693969727,2.75812029838562,-0.5506663918495178
1772734446926568700,7.570568603515625,8.159439086914062,2.80361008644104,-0.4620809257030487
1772734446934979600,7.5789794921875,7.994239330291748,2.741360902786255,-0.24181437492370605
1772734446945041400,7.58904150390625,7.929595947265625,2.827552318572998,-0.2346317619085312
1772734446955034000,7.5990341796875,7.908048152923584,2.734178304672241,-0.2082955539226532
1772734446965075200,7.6090751953125,7.836222171783447,2.7964274883270264,-0.09816227108240128
1772734446975104800,7.619104736328125,7.73087739944458,2.7269957065582275,-0.2106897532939911
1772734446985471200,7.62947119140625,7.694964408874512,2.719813108444214,-0.15801730751991272
1772734446995148300,7.639148193359375,7.491456985473633,2.717418909072876,-0.10773907601833344
1772734447005194000,7.649194091796875,7.560888767242432,2.7916390895843506,0.11252748221158981
1772734447015212000,7.6592119140625,7.522581577301025,2.736572504043579,0.19393034279346466
1772734447035269600,7.67926953125,7.489062786102295,2.829946517944336,0.4572925269603729
1772734447045310500,7.689310546875,7.419631004333496,2.87064790725708,0.5626373887062073
1772734447055345700,7.699345703125,7.570465564727783,2.7772738933563232,0.6991068720817566
1772734447066013700,7.710013671875,7.759607791900635,2.7509377002716064,0.8427590131759644
1772734447075397000,7.719397216796875,8.085219383239746,2.647987127304077,0.8092401623725891
1772734447088243200,7.7322431640625,8.346187591552734,2.5522189140319824,0.9217676520347595
1772734447095710200,7.739710205078125,8.501810073852539,2.6001031398773193,0.912190854549408
1772734447105517600,7.749517578125,8.875306129455566,2.6001031398773193,0.9097966551780701
1772734447115505200,7.759505126953125,9.23443603515625,2.5067291259765625,0.7086837291717529
1772734447125544400,7.76954443359375,9.342175483703613,2.499546527862549,0.569819986820221
1772734447135588600,7.779588623046875,9.682151794433594,2.585737943649292,0.3974374830722809
1772734447145649400,7.7896494140625,9.911994934082031,2.564189910888672,0.26336219906806946
1772734447155652900,7.79965283203125,10.022128105163574,2.5498247146606445,-0.05985504388809204
1772734447165693200,7.809693115234375,9.976638793945312,2.4851813316345215,-0.3423708379268646
1772734447175705300,7.819705322265625,9.971850395202637,2.580949544906616,-0.5937620401382446
1772734447186080500,7.83008056640625,9.950302124023438,2.6431987285614014,-0.6919242739677429
1772734447195766800,7.839766845703125,9.86650562286377,2.6168625354766846,-0.9241618514060974
1772734447205798100,7.849798095703125,9.86650562286377,2.3104045391082764,-0.9696516990661621
1772734447215781400,7.859781494140625,9.952696800231934,1.9991583824157715,-0.9959878921508789
1772734447226414600,7.87041455078125,9.983820915222168,1.8698714971542358,-1.0582371950149536
1772734447235769300,7.879769287109375,9.799467086791992,1.6855180263519287,-1.2401964664459229
1772734447247397400,7.8913974609375,9.677363395690918,1.6376339197158813,-1.3910311460494995
1772734447255808500,7.89980859375,9.674968719482422,1.800439715385437,-1.5969325304031372
1772734447265836000,7.9098359375,9.734824180603027,1.8291701078414917,-1.7860745191574097
1772734447275802600,7.919802734375,9.57201862335205,1.9512743949890137,-1.9129672050476074
1772734447286126300,7.930126220703125,9.433155059814453,2.1164743900299072,-2.027888774871826
1772734447295829800,7.939829833984375,9.263166427612305,2.3032219409942627,-2.032677173614502
1772734447305860000,7.949860107421875,9.11233139038086,2.406172752380371,-2.1068975925445557
1772734447315825200,7.9598251953125,9.081207275390625,2.425326347351074,-2.0254945755004883
1772734447325837000,7.969837158203125,9.155426979064941,2.537853717803955,-1.941697597503662
1772734447335831000,7.9798310546875,9.232041358947754,2.631227731704712,-2.0901381969451904
1772734447345879800,7.9898798828125,9.138668060302734,2.827552318572998,-2.0590133666992188
1772734447355849700,7.999849609375,8.96389102935791,2.6815059185028076,-2.145204782485962
1772734447365864200,8.0098642578125,9.141061782836914,2.7317841053009033,-2.1978771686553955
1772734447375854300,8.019854248046874,9.220070838928223,2.5785553455352783,-2.1284453868865967
1772734447386802700,8.030802734375,9.41639518737793,2.561795711517334,-2.1715409755706787
1772734447395863000,8.039863037109376,9.0859956741333,2.540247917175293,-2.1332337856292725
1772734447408360200,8.052360107421874,8.69095230102539,2.58813214302063,-2.0853497982025146
1772734447415881500,8.059881591796875,8.573636054992676,2.5905263423919678,-2.1068975925445557
1772734447425906200,8.06990625,8.736441612243652,2.4684219360351562,-2.0470423698425293
1772734447435868400,8.079868408203126,9.090784072875977,2.2433669567108154,-2.078166961669922
1772734447445887500,8.089887451171874,9.32541561126709,2.1164743900299072,-2.188300371170044
1772734447455975000,8.099974853515626,9.251194953918457,2.2864625453948975,-2.4468741416931152
1772734447475894000,8.11989404296875,8.875306129455566,2.535459518432617,-2.7293899059295654
1772734447486224400,8.130224365234374,8.887276649475098,2.322375535964966,-2.676717519760132
1772734447495921000,8.1399208984375,8.927978515625,2.075772762298584,-2.8203697204589844
1772734447505967600,8.149967529296875,9.157821655273438,1.721431016921997,-2.9472622871398926
1772734447515943400,8.159943359375,9.14585018157959,1.4963760375976562,-3.1244332790374756
1772734447525961200,8.169961181640625,9.059659004211426,1.3934253454208374,-3.2824504375457764
1772734447535992300,8.179992431640626,8.992621421813965,1.3263877630233765,-3.2632968425750732
1772734447546634500,8.190634521484375,9.011775016784668,1.192312479019165,-3.399766445159912
1772734447555992600,8.19999267578125,9.193734169006348,1.1252747774124146,-3.469198226928711
1772734447567639600,8.2116396484375,9.368511199951172,1.1420341730117798,-3.576937437057495
1772734447576031700,8.22003173828125,9.26795482635498,1.1109095811843872,-3.6966474056243896
1772734447586401800,8.23040185546875,9.117119789123535,1.039083480834961,-3.734954595565796
1772734447596072400,8.240072509765625,9.222464561462402,0.8451532125473022,-3.7493197917938232
1772734447606102000,8.25010205078125,9.320627212524414,0.9313444495201111,-3.6535518169403076
1772734447616091400,8.26009130859375,9.346963882446289,0.9552865028381348,-3.667917013168335
1772734447626129400,8.27012939453125,9.545681953430176,1.0295066833496094,-3.5482068061828613
1772734447636098800,8.280098876953126,9.38048267364502,0.8571242094039917,-3.514688014984131
1772734447646186200,8.290186279296876,9.560047149658203,0.7493851184844971,-3.4979286193847656
1772734447656124000,8.3001240234375,9.605537414550781,0.706289529800415,-3.426102638244629
1772734447666145800,8.310145751953126,9.660603523254395,0.7015010714530945,-3.531447410583496
1772734447676139500,8.320139404296874,9.615114212036133,0.6536170840263367,-3.44765043258667
1772734447686512600,8.3305126953125,9.737217903137207,0.6919242739677429,-3.442862033843994
1772734447696210200,8.340210205078124,9.938331604003906,0.8331822156906128,-3.406949043273926
1772734447706841000,8.350841064453125,10.072406768798828,0.8690952062606812,-3.4093432426452637
1772734447716231700,8.360231689453125,10.156203269958496,0.9265560507774353,-3.5625722408294678
1772734447728764700,8.3727646484375,10.129867553710938,0.8595184087753296,-3.5242648124694824
1772734447736299000,8.380299072265625,10.268731117248535,0.8762778043746948,-3.4620156288146973
1772734447746330400,8.390330322265624,10.11789608001709,0.7661445140838623,-3.3710360527038574
1772734447756327400,8.400327392578125,9.806650161743164,0.8140285611152649,-3.2968156337738037
1772734447766381300,8.41038134765625,9.636661529541016,0.6272808313369751,-3.07415509223938
1772734447776380000,8.4203798828125,9.610325813293457,0.5482721924781799,-3.002328872680664
1772734447786718700,8.43071875,9.3828763961792,0.4141969084739685,-2.964021682739258
1772734447796399600,8.440399658203125,9.318233489990234,0.26336219906806946,-2.942473888397217
1772734447806455600,8.45045556640625,9.50737476348877,0.26336219906806946,-2.8443117141723633
1772734447816439300,8.460439208984376,9.634267807006836,0.44771572947502136,-2.7892448902130127
1772734447826478800,8.470478759765625,9.830592155456543,0.40701428055763245,-2.7772738933563232
1772734447836462800,8.480462890625,9.856928825378418,0.5291185975074768,-2.8107926845550537
1772734447846515200,8.49051513671875,9.780313491821289,0.6200982332229614,-2.7700912952423096
1772734447856517600,8.500517578125,9.634267807006836,0.7015010714530945,-2.738966703414917
1772734447876529700,8.52052978515625,9.53849983215332,0.5434837937355042,-2.5785553455352783
1772734447888489200,8.5324892578125,9.495404243469238,0.5434837937355042,-2.513911724090576
1772734447896614700,8.54061474609375,9.464279174804688,0.3232172429561615,-2.58813214302063
1772734447906664000,8.550663818359375,9.59835433959961,0.24181437492370605,-2.583343744277954
1772734447916683500,8.56068359375,9.488221168518066,0.3447650372982025,-2.499546527862549
1772734447926765800,8.570765869140626,9.50498104095459,0.4381389021873474,-2.4396915435791016
1772734447936799000,8.580799072265625,9.41400146484375,0.4141969084739685,-2.473210334777832
1772734447946846000,8.590845947265626,9.409213066101074,0.5578489899635315,-2.3726539611816406
1772734447956864500,8.600864501953126,9.461885452270508,0.44532153010368347,-2.4636335372924805
1772734447966926000,8.610926025390626,9.41400146484375,0.3878606855869293,-2.535459518432617
1772734447987294500,8.63129443359375,9.440337181091309,0.1628057211637497,-2.4444799423217773
1772734447996998400,8.640998291015626,9.583989143371582,0.11013327538967133,-2.3989901542663574
1772734448007065000,8.651065185546875,9.50737476348877,0.1867477297782898,-2.434903144836426
1772734448017065200,8.661065185546875,9.454702377319336,0.2561795711517334,-2.403778553009033
1772734448027719200,8.67171923828125,9.466673851013184,0.2849099934101105,-2.425326347351074
1772734448037128200,8.681128173828125,9.619902610778809,0.2801215946674347,-2.363077163696289
1772734448049675800,8.69367578125,9.66539192199707,0.23702596127986908,-2.3558945655822754
1772734448057212400,8.70121240234375,9.672574996948242,0.2059013396501541,-2.3702597618103027
1772734448067264800,8.7112646484375,9.617507934570312,0.26815059781074524,-2.363077163696289
1772734448087667700,8.731667724609375,9.378087997436523,-0.019153613597154617,-2.4899697303771973
1772734448097359400,8.741359375,9.490615844726562,-0.07422025501728058,-2.4181437492370605
1772734448107415000,8.7514150390625,9.363722801208496,-0.0694318488240242,-2.3535003662109375
1772734448117438200,8.761438232421876,9.442731857299805,0.016759412363171577,-2.38462495803833
1772734448127497200,8.771497314453125,9.550470352172852,0.22744916379451752,-2.492363929748535
1772734448137474800,8.781474853515626,9.545681953430176,0.4429273009300232,-2.5737667083740234
1772734448147521000,8.79152099609375,9.713275909423828,0.5602431893348694,-2.760514497756958
1772734448157512200,8.80151220703125,9.545681953430176,0.5530605912208557,-2.8658595085144043
1772734448167560000,8.811559814453124,9.342175483703613,0.5267243981361389,-2.7269957065582275
1772734448177534700,8.82153466796875,9.284713745117188,0.3423708379268646,-2.9472622871398926
1772734448197549800,8.8415498046875,9.227252960205078,0.16519992053508759,-3.136404275894165
1772734448209233700,8.853233642578125,9.181763648986816,0.08140286058187485,-3.1914708614349365
1772734448217589200,8.86158935546875,9.349357604980469,0.043095629662275314,-3.1962592601776123
1772734448227604700,8.871604736328125,9.512163162231445,-0.09816227108240128,-3.2345664501190186
1772734448237589000,8.881589111328125,9.605537414550781,-0.11971008777618408,-3.1699230670928955
1772734448247637200,8.89163720703125,9.545681953430176,-0.3734954595565796,-3.19865345954895
1772734448257614600,8.901614501953125,9.605537414550781,-0.5626373887062073,-3.1914708614349365
1772734448267623400,8.91162353515625,9.497797966003418,-0.6344634294509888,-3.0621838569641113
1772734448277609200,8.921609130859375,9.423578262329102,-0.6320692300796509,-3.114856481552124
1772734448297630700,8.941630615234375,9.045293807983398,-0.4596867263317108,-2.853888511657715
1772734448307662600,8.95166259765625,9.133879661560059,-0.5602431893348694,-2.674323320388794
1772734448317645600,8.9616455078125,9.004592895507812,-0.7805097699165344,-2.7006595134735107
1772734448327674600,8.971674560546875,9.05487060546875,-1.0319008827209473,-2.6886885166168213
1772734448337682400,8.981682373046874,9.153033256530762,-1.256955862045288,-2.698265314102173
1772734448348338400,8.99233837890625,9.229647636413574,-1.2976573705673218,-2.7078421115875244
1772734448357744400,9.001744384765624,9.217676162719727,-1.0749965906143188,-2.765302896499634
1772734448370295000,9.014294921875,9.301473617553711,-0.9600749015808105,-2.7437551021575928
1772734448377834800,9.021834716796874,9.363722801208496,-0.8762778043746948,-2.7533318996429443
1772734448397886000,9.041885986328126,9.550470352172852,-0.5315127968788147,-2.7317841053009033
1772734448407949000,9.051948974609376,9.20091724395752,-0.3423708379268646,-2.652775526046753
1772734448417959200,9.061959228515626,8.98543930053711,-0.28969839215278625,-2.6024973392486572
1772734448428005600,9.072005615234374,8.841787338256836,-0.29209262132644653,-2.5977089405059814
1772734448438018800,9.082018798828125,8.944737434387207,-0.4405331015586853,-2.5234885215759277
1772734448448085500,9.09208544921875,9.184157371520996,-0.6655880808830261,-2.470816135406494
1772734448458095400,9.102095458984374,9.229647636413574,-0.7230489253997803,-2.4612393379211426
1772734448468148200,9.112148193359374,9.311050415039062,-0.790086567401886,-2.52109432220459
1772734448478171400,9.12217138671875,9.150638580322266,-0.933738648891449,-2.540247917175293
1772734448488570400,9.1325703125,9.186552047729492,-0.7733271718025208,-2.494758129119873
1772734448498290700,9.142290771484374,9.332598686218262,-0.6991068720817566,-2.434903144836426
1772734448518403000,9.162403076171875,9.50498104095459,-0.6153098344802856,-2.367865562438965
1772734448530090500,9.174090576171874,9.346963882446289,-0.7589619159698486,-2.4851813316345215
1772734448538546000,9.1825458984375,9.275136947631836,-0.9840168952941895,-2.5019407272338867
1772734448548602000,9.19260205078125,9.677363395690918,-0.8834604024887085,-2.3080103397369385
1772734448558643500,9.2026435546875,9.279925346374512,-0.689530074596405,-2.341529369354248
1772734448568737300,9.2127373046875,9.545681953430176,-0.6584054827690125,-2.341529369354248
1772734448578749400,9.22274951171875,9.864110946655273,-0.8236053586006165,-2.4157495498657227
1772734448589103600,9.233103515625,9.77791976928711,-0.9265560507774353,-2.497152328491211
1772734448598803200,9.24280322265625,9.706093788146973,-1.072602391242981,-2.5282769203186035
1772734448608874000,9.2528740234375,9.835380554199219,-1.1109095811843872,-2.367865562438965
1772734448618861000,9.262861083984374,9.732429504394531,-1.0055646896362305,-2.2888567447662354
1772734448628893200,9.27289306640625,9.555258750915527,-0.9624691009521484,-2.2673089504241943
1772734448638892300,9.282892333984375,9.373299598693848,-0.9385270476341248,-2.315192937850952
1772734448648967700,9.2929677734375,9.253589630126953,-0.9816226959228516,-2.432508945465088
1772734448658963700,9.302963623046875,9.435548782348633,-0.6919242739677429,-2.494758129119873
1772734448669604000,9.31360400390625,9.653421401977539,-0.6057330369949341,-2.2840683460235596
1772734448678992100,9.3229921875,9.119514465332031,-0.5889736413955688,-2.3367409706115723
1772734448691844600,9.3358447265625,9.47146224975586,-0.5530605912208557,-2.296039342880249
1772734448701062700,9.345062744140625,9.457097053527832,-0.4381389021873474,-2.3558945655822754
1772734448721160000,9.365159912109375,9.75397777557373,-0.8810662031173706,-2.365471363067627
1772734448731241500,9.375241455078125,9.914389610290527,-0.8451532125473022,-2.2840683460235596
1772734448741275000,9.38527490234375,9.703699111938477,-0.4596867263317108,-2.33913516998291
1772734448751337200,9.395337158203125,9.605537414550781,-0.35434186458587646,-2.406172752380371
1772734448761474300,9.405474365234374,9.454702377319336,-0.26575639843940735,-2.4420857429504395
1772734448771428000,9.415427978515625,9.519346237182617,-0.21787235140800476,-2.4851813316345215
1772734448781449000,9.425448974609376,9.524134635925293,-0.1149216815829277,-2.542642116546631
1772734448791817200,9.435817138671876,9.445125579833984,-0.043095629662275314,-2.6408045291900635
1772734448801527000,9.445527099609375,9.344569206237793,-0.019153613597154617,-2.693476915359497
1772734448811612700,9.45561279296875,9.258378028869629,-0.1412578970193863,-2.7030537128448486
1772734448821622300,9.465622314453125,9.296685218811035,-0.38067805767059326,-2.7078421115875244
1772734448832296700,9.476296630859375,9.672574996948242,-0.3926490843296051,-2.691082715988159
1772734448841705500,9.48570556640625,9.974244117736816,0.08140286058187485,-2.7916390895843506
1772734448853431300,9.497431396484375,9.72285270690918,0.40940847992897034,-3.004723072052002
1772734448861828400,9.505828369140625,8.537723541259766,1.115697979927063,-3.0119056701660156
1772734448871889400,9.515889404296875,9.466673851013184,0.7469909191131592,-3.0310592651367188
1772734448881918700,9.525918701171875,10.38844108581543,-0.28730419278144836,-3.251325845718384
1772734448892316200,9.536316162109374,10.398017883300781,-0.8643068075180054,-3.6152446269989014
1772734448902021000,9.546021240234374,10.127472877502441,-0.751779317855835,-3.5649664402008057
1772734448912091100,9.556091064453126,9.361329078674316,-0.6991068720817566,-3.5051112174987793
1772734448922130000,9.5661298828125,9.074024200439453,-0.7996633648872375,-3.066972494125366
1772734448932223700,9.5762236328125,9.160215377807617,-0.7422025203704834,-2.741360902786255
1772734448942255600,9.586255615234375,9.457097053527832,-0.4620809257030487,-2.5282769203186035
1772734448952328700,9.59632861328125,9.339780807495117,-0.181959331035614,-2.5450363159179688
1772734448962342400,9.60634228515625,9.14345645904541,0.07661445438861847,-2.8203697204589844
1772734448972393200,9.616393310546876,9.404424667358398,-0.05267243832349777,-2.80361008644104
1772734448982384400,9.62638427734375,9.040505409240723,-0.5339069962501526,-2.940079689025879
1772734448993334500,9.63733447265625,9.361329078674316,-0.7805097699165344,-2.738966703414917
1772734449002438100,9.646438232421875,9.612719535827637,-1.0247182846069336,-2.5713725090026855
1772734449014967300,9.65896728515625,9.627084732055664,-1.0558429956436157,-2.477998733520508
1772734449022482700,9.666482666015625,9.57441234588623,-0.9600749015808105,-2.497152328491211
1772734449032531700,9.67653173828125,9.531316757202148,-0.8643068075180054,-2.516305923461914
1772734449042532600,9.68653271484375,9.531316757202148,-0.7422025203704834,-2.4444799423217773
1772734449052582100,9.69658203125,9.63187313079834,-0.5770025849342346,-2.451662540435791
1772734449062564000,9.706564208984375,9.780313491821289,-0.4908113479614258,-2.4827871322631836
1772734449072595000,9.716594970703126,9.701305389404297,-0.49320554733276367,-2.5067291259765625
1772734449082605600,9.72660546875,9.502586364746094,-0.5889736413955688,-2.6455929279327393
1772734449092964600,9.736964599609376,9.39245319366455,-0.6536170840263367,-2.7533318996429443
1772734449102637800,9.746637939453125,9.478644371032715,-0.7374141216278076,-2.542642116546631
1772734449112664600,9.75666455078125,9.265560150146484,-0.8834604024887085,-2.4013843536376953
1772734449122665200,9.766665283203125,9.320627212524414,-1.0271124839782715,-2.319981336593628
1772734449132714500,9.776714599609376,9.39245319366455,-1.0989385843276978,-2.3367409706115723
1772734449142729500,9.7867294921875,9.44752025604248,-0.9193734526634216,-2.43011474609375
1772734449153369900,9.797369873046875,9.411606788635254,-0.8547300100326538,-2.5929205417633057
1772734449162773500,9.8067734375,9.5624418258667,-0.7469909191131592,-2.5929205417633057
1772734449174411800,9.818411865234374,9.732429504394531,-0.7613561153411865,-2.6408045291900635
1772734449182833200,9.826833251953126,9.892841339111328,-0.6919242739677429,-2.6791117191314697
1772734449193190000,9.83718994140625,9.938331604003906,-0.6943184733390808,-2.7772738933563232
1772734449202881500,9.846881591796874,9.758766174316406,-0.6751648783683777,-2.782062292098999
1772734449212932900,9.856932861328126,9.68694019317627,-0.49320554733276367,-2.7988216876983643
1772734449222916600,9.86691650390625,9.548076629638672,-0.31842881441116333,-2.631227731704712
1772734449232950300,9.8769501953125,9.299078941345215,-0.40701428055763245,-2.4229321479797363
1772734449242951700,9.88695166015625,9.102754592895508,-0.5793967843055725,-2.2840683460235596
1772734449253006000,9.897006103515626,9.246406555175781,-0.6200982332229614,-2.205059766769409
1772734449262992100,9.9069921875,9.495404243469238,-0.35673606395721436,-2.1715409755706787
1772734449273034200,9.9170341796875,9.545681953430176,-0.24660277366638184,-2.2361843585968018
1772734449283037400,9.927037353515624,9.526528358459473,-0.009576806798577309,-2.2002713680267334
1772734449293400300,9.937400390625,9.605537414550781,0.13168109953403473,-2.0446481704711914
1772734449303079200,9.9470791015625,9.62947940826416,0.2513911724090576,-1.9393033981323242
1772734449313715500,9.957715576171875,9.615114212036133,0.33279404044151306,-1.8315643072128296
1772734449323117600,9.96711767578125,9.59596061706543,0.3926490843296051,-1.889025092124939
1772734449335682000,9.97968212890625,9.435548782348633,0.24660277366638184,-2.013523578643799
1772734449343249000,9.987248779296875,9.390059471130371,0.2322375625371933,-2.0638017654418945
1772734449353320700,9.99732080078125,9.29189682006836,0.4884171485900879,-1.922544002532959
1772734449363359500,10.007359375,9.287108421325684,0.5219359993934631,-1.824381709098816
1772734449373440300,10.017440185546874,9.394847869873047,0.6033388376235962,-1.7621324062347412
1772734449383455700,10.027455810546876,9.406818389892578,0.545877993106842,-1.7166426181793213
1772734449393775600,10.037775634765625,9.332598686218262,0.40701428055763245,-1.7070658206939697
1772734449403464200,10.047464111328125,9.016563415527344,0.3687070608139038,-1.6927006244659424
1772734449413513200,10.05751318359375,8.927978515625,0.3902548849582672,-1.678335428237915
1772734449423509000,10.067509033203125,9.093177795410156,0.35913026332855225,-1.5466543436050415
1772734449433533200,10.077533203125,9.351752281188965,0.3447650372982025,-1.5490485429763794
1772734449443536000,10.087535888671875,9.32541561126709,0.2537853717803955,-1.623268723487854
1772734449453579300,10.097579345703124,9.327810287475586,0.33039984107017517,-1.7334020137786865
1772734449463564000,10.10756396484375,9.490615844726562,0.22026655077934265,-1.7932571172714233
1772734449474204000,10.118203857421875,9.490615844726562,0.09576806426048279,-1.9297266006469727
1772734449483612000,10.12761181640625,9.521739959716797,0.0933738648891449,-1.9153614044189453
1772734449495614500,10.139614501953124,9.545681953430176,0.12689268589019775,-2.049436569213867
1772734449503677700,10.147677734375,9.555258750915527,0.17477671802043915,-2.1523873805999756
1772734449513721300,10.157721435546875,9.627084732055664,0.30885201692581177,-2.1787235736846924
1772734449523721700,10.1677216796875,9.794678688049316,0.2537853717803955,-2.1499931812286377
1772734449533763300,10.177763427734375,9.651026725769043,0.2059013396501541,-2.118868589401245
1772734449543772000,10.18777197265625,9.710882186889648,0.15562310814857483,-2.097320795059204
1772734449553800200,10.19780029296875,9.80904483795166,0.12689268589019775,-2.075772762298584
1772734449563807000,10.207806884765626,9.797073364257812,0.12689268589019775,-2.121262788772583
1772734449573853700,10.217853759765624,9.763554573059082,0.15562310814857483,-2.1739351749420166
1772734449583832600,10.22783251953125,9.797073364257812,0.08858546614646912,-2.276885747909546
1772734449594186800,10.238186767578124,9.758766174316406,0.031124621629714966,-2.2361843585968018
1772734449603875300,10.247875244140625,9.785101890563965,0.11013327538967133,-2.1595699787139893
1772734449613922000,10.257922119140625,10.093954086303711,0.10055647045373917,-2.185906171798706
1772734449623915000,10.2679150390625,10.15141487121582,0.17956513166427612,-2.2840683460235596
1772734449634549000,10.278549072265625,10.393229484558105,0.2561795711517334,-2.4444799423217773
1772734449643947500,10.287947509765624,10.558429718017578,0.2537853717803955,-2.6001031398773193
1772734449656481500,10.3004814453125,10.831368446350098,0.14365209639072418,-2.738966703414917
1772734449664000000,10.308,10.886435508728027,0.1364694982767105,-2.8562827110290527
1772734449674031000,10.318031005859375,10.869675636291504,0.1388636976480484,-3.050212860107422
1772734449684042200,10.328042236328125,10.896012306213379,0.2322375625371933,-3.090914487838745
1772734449694393300,10.338393310546875,10.924742698669434,0.5530605912208557,-3.098097085952759
1772734449704084200,10.348084228515624,10.92953109741211,0.7015010714530945,-3.134010076522827
1772734449714106400,10.3581064453125,10.867281913757324,0.8619126081466675,-3.047818660736084
1772734449724115000,10.368114990234375,10.745177268981934,1.0582371950149536,-2.918531894683838
1772734449734163000,10.378162841796875,10.639832496643066,1.161187767982483,-2.7964274883270264
1772734449744142600,10.388142578125,10.642226219177246,1.0223240852355957,-2.6024973392486572
1772734449754251000,10.3982509765625,10.51054573059082,0.9888052940368652,-2.473210334777832
1772734449764201000,10.408200927734375,10.505757331848145,0.9433154463768005,-2.3918075561523438
1772734449774252500,10.41825244140625,10.38604736328125,0.8307880163192749,-2.3942017555236816
1772734449784244200,10.428244140625,10.213664054870605,0.7637503147125244,-2.296039342880249
1772734449795196000,10.43919580078125,9.80904483795166,0.5099649429321289,-2.250549554824829
1772734449804305700,10.4483056640625,9.560047149658203,0.4141969084739685,-2.1332337856292725
1772734449815943400,10.459943359375,9.351752281188965,0.3471592366695404,-2.0829553604125977
1772734449824359200,10.468359130859374,9.311050415039062,0.3471592366695404,-1.9512743949890137
1772734449834388000,10.478387939453125,9.339780807495117,0.4884171485900879,-1.920149803161621
1772734449844383000,10.488383056640625,9.375694274902344,0.667982280254364,-1.6903064250946045
1772734449854438100,10.498438232421876,9.521739959716797,0.9050082564353943,-1.6280571222305298
1772734449864425000,10.508425048828125,9.720458984375,1.036689281463623,-1.5873557329177856
1772734449874455300,10.518455322265625,9.387664794921875,1.2042834758758545,-1.237802267074585
1772734449884459300,10.528459228515626,8.983044624328613,1.1228805780410767,-1.1659762859344482
1772734449894809000,10.53880908203125,8.731653213500977,1.0247182846069336,-1.2066776752471924
1772734449904484000,10.548484130859375,8.504204750061035,0.9265560507774353,-1.0797849893569946
1772734449914503400,10.55850341796875,8.281543731689453,0.828393816947937,-1.091755986213684
1772734449924505000,10.568505126953125,8.307879447937012,0.7996633648872375,-1.1252747774124146
1772734449934541300,10.578541259765625,8.573636054992676,0.9433154463768005,-1.259350061416626
1772734449944541000,10.588541015625,9.011775016784668,1.2856862545013428,-1.2976573705673218
1772734449955173600,10.599173583984374,9.495404243469238,1.479616641998291,-1.400607943534851
1772734449964561700,10.608561767578125,9.821015357971191,1.647210717201233,-1.5466543436050415
1772734449977082600,10.62108251953125,9.885659217834473,1.8626888990402222,-1.5849615335464478
1772734449994927900,10.638927978515625,9.68694019317627,1.8531121015548706,-1.7070658206939697
1772734450004633900,10.6486337890625,9.402029991149902,1.8794482946395874,-1.5059528350830078
1772734450014711800,10.6587119140625,8.875306129455566,2.2242133617401123,-1.3000515699386597
1772734450024727800,10.668727783203124,8.729259490966797,2.5905263423919678,-1.139639973640442
1772734450034795800,10.678795654296875,8.846575736999512,2.8443117141723633,-0.8523358106613159
1772734450044816600,10.688816650390624,9.131484985351562,2.8850131034851074,-0.751779317855835
1772734450054860000,10.698860107421876,9.495404243469238,2.8107926845550537,-0.811634361743927
1772734450064837600,10.708837646484374,9.641449928283691,2.695871114730835,-0.9002198576927185
1772734450074865200,10.718865234375,9.593565940856934,2.5091233253479004,-1.1971008777618408
1772734450084865800,10.72886572265625,9.59596061706543,2.2649147510528564,-1.316810965538025
1772734450104919000,10.7489189453125,9.50737476348877,1.9153614044189453,-1.335964560508728
1772734450115569000,10.75956884765625,9.512163162231445,1.9943699836730957,-1.235408067703247
1772734450124966400,10.76896630859375,9.41639518737793,2.1978771686553955,-1.1516109704971313
1772734450136662500,10.78066259765625,9.555258750915527,2.3319525718688965,-1.1492167711257935
1772734450145034200,10.7890341796875,9.3828763961792,2.3582887649536133,-1.2880805730819702
1772734450155074600,10.799074462890625,9.258378028869629,2.456450939178467,-1.3718775510787964
1772734450165078300,10.809078369140625,9.100360870361328,2.561795711517334,-1.5275006294250488
1772734450175132400,10.81913232421875,8.980650901794434,2.5929205417633057,-1.4221558570861816
1772734450185115400,10.829115478515625,8.927978515625,2.609679937362671,-1.1779472827911377
1772734450205185500,10.849185546875,8.956708908081055,2.4229321479797363,-0.6272808313369751
1772734450215237000,10.859237060546874,8.810662269592285,2.5019407272338867,-0.43095630407333374
1772734450225213400,10.86921337890625,8.664615631103516,2.5234885215759277,-0.26815059781074524
1772734450235282400,10.879282470703124,8.686163902282715,2.604891538619995,-0.2585737705230713
1772734450245241300,10.889241455078125,8.571242332458496,2.5953147411346436,-0.33279404044151306
1772734450255261700,10.89926171875,8.492233276367188,2.583343744277954,-0.5291185975074768
1772734450265295400,10.90929541015625,8.485051155090332,2.6144683361053467,-0.7493851184844971
1772734450275907000,10.919906982421875,8.20732307434082,2.8203697204589844,-0.7996633648872375
1772734450285279200,10.929279296875,8.001421928405762,2.9472622871398926,-0.7182605266571045
1772734450305604000,10.94960400390625,7.675810813903809,2.9927520751953125,0.0071826050989329815
1772734450315424300,10.95942431640625,7.6111674308776855,2.9448680877685547,0.4165911078453064
1772734450325432600,10.9694326171875,7.398083209991455,2.784456491470337,0.8810662031173706
1772734450335485400,10.9794853515625,7.1921820640563965,2.583343744277954,1.1994950771331787
1772734450345546500,10.98954638671875,7.216124057769775,2.3056161403656006,1.4221558570861816
1772734450355615200,10.999615234375,7.287950038909912,2.032677173614502,1.482010841369629
1772734450365622800,11.009622802734375,7.340622425079346,1.821987509727478,1.4173674583435059
1772734450375679500,11.019679443359376,7.252037048339844,1.5705963373184204,1.2425906658172607
1772734450385697800,11.02969775390625,6.842628479003906,1.50355863571167,1.072602391242981
1772734450396082200,11.040082275390626,6.818686485290527,1.4748282432556152,1.4077905416488647
1772734450415834400,11.05983447265625,6.971915245056152,1.2018892765045166,2.1930887699127197
1772734450425852200,11.06985205078125,7.378929615020752,0.8379706144332886,2.6455929279327393
1772734450436545300,11.080545166015625,7.5848307609558105,0.4620809257030487,3.066972494125366
1772734450445944600,11.089944580078125,7.637503623962402,0.2082955539226532,3.090914487838745
1772734450457604900,11.10160498046875,7.690176010131836,-0.2322375625371933,3.2393548488616943
1772734450466057000,11.110056884765624,7.68538761138916,-0.608127236366272,3.383007049560547
1772734450476164900,11.120164794921875,7.704541206359863,-0.7757213711738586,3.5027170181274414
1772734450486182400,11.130182373046875,7.702147006988525,-0.7972691655158997,3.8067808151245117
1772734450496568300,11.140568359375,7.766790390014648,-0.7254431247711182,4.14915132522583
1772734450516335900,11.1603359375,8.4108304977417,-0.6655880808830261,4.5609540939331055
1772734450526321000,11.17032080078125,8.738836288452148,-0.6392518281936646,4.874594688415527
1772734450536348200,11.18034814453125,9.232041358947754,-0.6727706789970398,5.161899089813232
1772734450546351000,11.19035107421875,9.655815124511719,-0.7781155705451965,5.463568210601807
1772734450556402400,11.20040234375,9.998186111450195,-0.8164227604866028,5.925649166107178
1772734450566377700,11.210377685546876,10.793061256408691,-0.6775590777397156,6.449979305267334
1772734450576408000,11.220407958984374,11.69806957244873,-0.2968810200691223,6.92881965637207
1772734450586411300,11.230411376953125,12.536040306091309,0.22744916379451752,7.479485988616943
1772734450597381000,11.241381103515625,13.153743743896484,0.9313444495201111,7.90086555480957
1772734450606446600,11.250446533203124,13.39555835723877,1.5634137392044067,7.951143741607666
1772734450618957800,11.262957763671874,13.637372970581055,2.075772762298584,7.86734676361084
1772734450626505200,11.270505126953125,13.493721008300781,2.738966703414917,7.654263019561768
1772734450636561700,11.280561767578124,13.072340965270996,3.507505416870117,6.493074893951416
1772734450646534000,11.290533935546875,12.777854919433594,3.0837318897247314,6.098031520843506
1772734450656557300,11.300557373046875,12.45463752746582,2.585737943649292,5.669469833374023
1772734450666587000,11.3105869140625,11.944672584533691,1.9632453918457031,5.705382823944092
1772734450676672000,11.320672119140625,11.30063247680664,1.5466543436050415,5.884947776794434
1772734450686687700,11.330687744140626,10.398017883300781,1.1348515748977661,5.916072368621826
1772734450697064200,11.341064208984376,9.679757118225098,0.7541735172271729,5.719748020172119
1772734450706816500,11.35081640625,9.32302188873291,0.304063618183136,5.240907669067383
1772734450716899000,11.360899169921876,9.258378028869629,-0.40940847992897034,4.683058738708496
1772734450726917400,11.37091748046875,9.402029991149902,-1.05105459690094,3.9863457679748535
1772734450736981000,11.38098095703125,9.677363395690918,-1.656787633895874,3.313575267791748
1772734450747043000,11.39104296875,9.526528358459473,-1.7980455160140991,2.6791117191314697
1772734450757734100,11.401734130859374,9.150638580322266,-1.8339585065841675,2.166752576828003
1772734450767330000,11.411330078125,8.69095230102539,-1.623268723487854,2.027888774871826
1772734450778824000,11.422823974609376,8.197746276855469,-1.6112977266311646,2.0805611610412598
1772734450787249700,11.431249755859374,7.50582218170166,-1.6424223184585571,2.166752576828003
1772734450797643500,11.4416435546875,7.007828235626221,-1.867477297782898,2.10210919380188
1772734450807342000,11.451342041015625,6.825869083404541,-2.3271639347076416,2.075772762298584
1772734450827455500,11.47145556640625,7.69735860824585,-3.6583402156829834,1.479616641998291
1772734450837539800,11.481539794921876,8.226476669311523,-4.228160381317139,0.8020575642585754
1772734450847607600,11.491607666015625,8.403648376464844,-4.754884719848633,0.0454898327589035
1772734450857620200,11.5016201171875,8.580819129943848,-5.286397457122803,-0.8643068075180054
1772734450867688000,11.51168798828125,8.777143478393555,-5.91128396987915,-1.6855180263519287
1772734450877765000,11.52176513671875,8.652645111083984,-6.282385349273682,-2.58813214302063
1772734450887781400,11.531781494140626,8.595184326171875,-6.72531270980835,-2.7126305103302
1772734450898156000,11.542156005859376,8.465897560119629,-6.739677906036377,-2.58813214302063
1772734450907887900,11.551887939453126,8.125920295715332,-6.323086738586426,-2.166752576828003
1772734450918584800,11.562584716796875,7.85537576675415,-5.770026206970215,-1.6711528301239014
1772734450927988200,11.57198828125,7.94635534286499,-5.264849662780762,-1.036689281463623
1772734450940537000,11.584537109375,7.955932140350342,-4.857835292816162,-0.5889736413955688
1772734450948110800,11.59211083984375,8.039729118347168,-4.5609540939331055,-0.17238251864910126
1772734450958196000,11.602196044921875,8.123526573181152,-4.182670593261719,-0.0694318488240242
1772734450968208600,11.612208740234376,8.01339340209961,-3.9001545906066895,-0.08140286058187485
1772734450978264600,11.6222646484375,8.032546997070312,-3.7660791873931885,-0.1843535304069519
1772734450988284700,11.63228466796875,8.31985092163086,-3.818751811981201,-0.3998316824436188
1772734450998675700,11.64267578125,8.31985092163086,-3.711012601852417,-0.5889736413955688
1772734451008529700,11.65252978515625,8.1139497756958,-3.4117374420166016,-0.5985504388809204
1772734451028452400,11.672452392578125,8.180987358093262,-3.1914708614349365,-0.26336219906806946
1772734451038537500,11.682537353515626,7.948749542236328,-3.0837318897247314,-0.004788403399288654
1772734451048548900,11.692548828125,7.888894557952881,-3.0310592651367188,0.14604631066322327
1772734451058626600,11.70262646484375,8.068459510803223,-3.1076738834381104,0.28730419278144836
1772734451068659000,11.712658935546875,8.219294548034668,-3.0550012588500977,0.2777273952960968
1772734451079362800,11.72336279296875,8.281543731689453,-2.8179752826690674,0.3711012601852417
1772734451088767200,11.732767333984375,8.362946510314941,-2.580949544906616,0.40222588181495667
1772734451100736500,11.744736572265625,8.585607528686523,-2.3750481605529785,0.5291185975074768
1772734451108891000,11.752890869140625,8.810662269592285,-2.2409727573394775,0.751779317855835
1772734451128974000,11.77297412109375,9.016563415527344,-1.4939818382263184,1.2832920551300049
1772734451139031300,11.78303125,9.05487060546875,-1.4437036514282227,1.3670891523361206
1772734451149084700,11.793084716796875,9.040505409240723,-1.3623007535934448,1.4101848602294922
1772734451159160800,11.803160888671876,8.995016098022461,-1.237802267074585,1.4676456451416016
1772734451169166600,11.81316650390625,8.913613319396973,-1.3120225667953491,1.4053963422775269
1772734451179224300,11.823224365234376,8.83939266204834,-1.3910311460494995,1.3192051649093628
1772734451189250300,11.833250244140626,8.621520042419434,-1.4915876388549805,1.3551181554794312
1772734451199635500,11.843635498046876,8.458714485168457,-1.4748282432556152,1.4867992401123047
1772734451209332500,11.85333251953125,8.078036308288574,-1.5298948287963867,1.6879122257232666
1772734451219389000,11.863388916015625,7.977479934692383,-1.6615760326385498,1.800439715385437
1772734451240096000,11.884095947265624,8.04691219329834,-2.3750481605529785,2.492363929748535
1772734451249753000,11.893753173828125,8.003816604614258,-2.454056739807129,2.3271639347076416
1772734451262025200,11.906025146484374,7.879317760467529,-2.559401512145996,2.2361843585968018
1772734451269586200,11.913586181640625,8.003816604614258,-2.631227731704712,2.073378562927246
1772734451279652400,11.92365234375,8.2312650680542,-2.801215887069702,2.1140801906585693
1772734451289656800,11.93365673828125,8.216899871826172,-3.093308687210083,2.123656988143921
1772734451300036400,11.944036376953125,7.979874134063721,-3.287238836288452,2.3056161403656006
1772734451309769200,11.953769287109376,7.82185697555542,-3.354276657104492,2.671929121017456
1772734451319832800,11.963832763671874,7.733271598815918,-3.3446998596191406,3.0526070594787598
1772734451339897300,11.9838974609375,7.326257228851318,-2.741360902786255,4.050989151000977
1772734451349933300,11.993933349609375,7.424419403076172,-2.4684219360351562,4.376600742340088
1772734451360004400,12.00400439453125,7.553706169128418,-2.387019157409668,4.541800498962402
1772734451370019000,12.01401904296875,8.106766700744629,-2.985569477081299,4.3191399574279785
1772734451380075500,12.024075439453124,8.425195693969727,-3.4596214294433594,4.01268196105957
1772734451390109000,12.03410888671875,8.669404029846191,-3.950432777404785,3.9240965843200684
1772734451401108500,12.0451083984375,8.81784439086914,-4.7405195236206055,3.976768970489502
1772734451410207500,12.05420751953125,8.829815864562988,-5.717353820800781,4.036623954772949
1772734451421907700,12.06590771484375,8.767566680908203,-6.698976516723633,4.3622355461120605
1772734451430323000,12.074322998046876,8.880094528198242,-7.228095054626465,4.565742492675781
1772734451450418700,12.094418701171875,9.485827445983887,-6.947973251342773,5.0876784324646
1772734451460481300,12.104481201171875,9.806650161743164,-6.287173748016357,5.396530628204346
1772734451470554400,12.114554443359374,9.988609313964844,-5.746084213256836,5.5976433753967285
1772734451480576800,12.12457666015625,10.24239444732666,-5.793968200683594,5.69580602645874
1772734451490952000,12.134951904296875,10.51054573059082,-6.117185115814209,5.66228723526001
1772734451500975400,12.144975341796876,10.539276123046875,-6.440402507781982,5.427655220031738
1772734451510684700,12.1546845703125,10.261548042297363,-6.842628479003906,4.975151062011719
1772734451520748000,12.164748046875,9.96945571899414,-6.938396453857422,4.733336925506592
1772734451530744300,12.174744384765624,9.715670585632324,-6.993463039398193,4.642356872558594
1772734451540797200,12.184797119140624,9.732429504394531,-6.852205276489258,4.4723687171936035
1772734451561532700,12.20553271484375,9.435548782348633,-6.169857978820801,3.9887399673461914
1772734451570920400,12.21492041015625,9.294290542602539,-5.8657941818237305,3.754108190536499
1772734451583455000,12.227455078125,9.411606788635254,-5.856217384338379,3.4811692237854004
1772734451591013600,12.235013671875,9.354146003723145,-5.633556365966797,3.222595453262329
1772734451601388300,12.24538818359375,9.282320022583008,-5.355829238891602,2.9879636764526367
1772734451611072500,12.255072509765625,8.707711219787598,-4.778826713562012,2.7485435009002686
1772734451621116400,12.265116455078125,8.238448143005371,-4.534617900848389,2.6671407222747803
1772734451631140000,12.27514013671875,7.644686222076416,-4.266467571258545,2.7054479122161865
1772734451641206300,12.285206298828125,7.3238630294799805,-4.173093795776367,2.626439332962036
1772734451661250000,12.30525,8.08282470703125,-4.041412353515625,2.164358377456665
1772734451671262500,12.315262451171876,8.427590370178223,-3.691859006881714,1.8387469053268433
1772734451681326800,12.325326904296874,8.753201484680176,-3.4596214294433594,1.6160861253738403
1772734451691318500,12.335318603515624,9.014169692993164,-3.4165258407592773,1.4772224426269531
1772734451701680000,12.34568017578125,9.062053680419922,-3.490746021270752,1.2042834758758545
1772734451711410400,12.355410400390625,8.78193187713623,-3.5649664402008057,1.192312479019165
1772734451722086000,12.3660859375,8.645462036132812,-3.7876269817352295,1.1324573755264282
1772734451731474400,12.375474365234375,8.451532363891602,-3.9217023849487305,1.137245774269104
1772734451743121700,12.38712158203125,8.216899871826172,-4.039018154144287,1.2066776752471924
1772734451761620700,12.405620849609376,8.322244644165039,-4.434061527252197,1.1516109704971313
1772734451771616800,12.41561669921875,8.365341186523438,-4.575319290161133,0.933738648891449
1772734451781670000,12.425669921875,8.317456245422363,-4.632780075073242,0.9600749015808105
1772734451791702300,12.435702392578126,8.307879447937012,-4.616020679473877,0.9145850539207458
1772734451802085600,12.446085693359375,8.236053466796875,-4.730942726135254,0.9265560507774353
1772734451811772400,12.4557724609375,8.224082946777344,-4.865017890930176,1.0055646896362305
1772734451821821400,12.465821533203124,8.288725852966309,-4.790797710418701,1.2665326595306396
1772734451831834400,12.47583447265625,8.322244644165039,-4.683058738708496,1.3862427473068237
1772734451841896000,12.48589599609375,8.274360656738281,-4.644751071929932,1.4652514457702637
1772734451861938400,12.5059384765625,7.690176010131836,-4.6734819412231445,1.4987702369689941
1772734451871959000,12.515958984375,7.805097579956055,-4.836287498474121,1.4772224426269531
1772734451882633200,12.52663330078125,7.7763671875,-5.013458251953125,1.45806884765625
1772734451892023300,12.536023193359375,7.864952564239502,-4.8937482833862305,1.4173674583435059
1772734451904888800,12.548888916015626,7.948749542236328,-4.683058738708496,1.4437036514282227
1772734451912373200,12.556373291015625,8.10437297821045,-4.49870491027832,1.4221558570861816
1772734451922192000,12.56619189453125,8.310274124145508,-4.206612586975098,1.4317326545715332
1772734451932185600,12.576185546875,8.53293514251709,-4.02465295791626,1.2952631711959839
1772734451942255600,12.586255615234375,8.700529098510742,-3.8570590019226074,1.3192051649093628
1772734451952290000,12.5962900390625,8.559270858764648,-3.6583402156829834,1.316810965538025
1772734451972363300,12.61636328125,8.513781547546387,-3.1531636714935303,1.3982137441635132
1772734451982427000,12.626427001953125,8.53532886505127,-3.069366693496704,1.4197616577148438
1772734451992426200,12.63642626953125,8.643068313598633,-3.3016040325164795,1.3431471586227417
1772734452002815700,12.646815673828126,8.789113998413086,-3.4572272300720215,1.357512354850769
1772734452012481800,12.656481689453125,8.844181060791016,-3.4955344200134277,1.2737152576446533
1772734452022549000,12.666549072265624,8.904036521911621,-3.56017804145813,1.3838485479354858
1772734452032573200,12.6765732421875,8.841787338256836,-3.512293815612793,1.4891934394836426
1772734452043266300,12.687266357421874,8.825027465820312,-3.550601005554199,1.6160861253738403
1772734452052640800,12.696640869140625,8.954314231872559,-3.663128614425659,1.6759412288665771
1772734452064340200,12.70834033203125,9.006986618041992,-3.8738183975219727,1.7956513166427612
1772734452072744200,12.716744140625,8.978256225585938,-4.170699596405029,1.7094600200653076
1772734452082818800,12.72681884765625,8.810662269592285,-4.252102375030518,1.7812861204147339
1772734452092813800,12.736813720703125,8.621520042419434,-4.371812343597412,1.8531121015548706
1772734452103174400,12.74717431640625,8.580819129943848,-4.60165548324585,1.8555063009262085
1772734452112890600,12.756890625,8.389283180236816,-5.102043628692627,2.1284453868865967
1772734452122953700,12.76695361328125,8.305485725402832,-5.363011837005615,2.0877439975738525
1772734452132951600,12.77695166015625,8.109161376953125,-5.463568210601807,2.142810583114624
1772734452142999600,12.78699951171875,7.90086555480957,-5.736507415771484,2.1380221843719482
1772734452153024300,12.797024169921874,7.735665798187256,-5.770026206970215,2.190694570541382
1772734452163087000,12.807087158203124,7.666234016418457,-5.92325496673584,2.1811177730560303
1772734452183169300,12.827169189453125,7.400477409362793,-5.954379558563232,2.1475989818573
1772734452193198000,12.837197998046875,7.299921035766602,-5.944802761077881,2.0805611610412598
1772734452204163600,12.84816357421875,7.072471618652344,-5.851428985595703,2.0470423698425293
1772734452213227300,12.857227294921875,6.976703643798828,-5.987898349761963,1.9943699836730957
1772734452225735700,12.869735595703125,7.072471618652344,-6.2201361656188965,1.8267759084701538
1772734452233272600,12.8772724609375,7.084442615509033,-6.342240333557129,1.745373010635376
1772734452243315700,12.887315673828125,7.299921035766602,-6.464344501495361,1.6208745241165161
1772734452253284400,12.897284423828125,7.1921820640563965,-6.445190906524658,1.4652514457702637
1772734452263313200,12.907313232421876,7.0341644287109375,-6.493074893951416,1.4077905416488647
1772734452273327600,12.91732763671875,6.878541469573975,-6.62236213684082,1.357512354850769
1772734452283360800,12.92736083984375,6.75883150100708,-6.610390663146973,1.2856862545013428
1772734452293325800,12.937325927734374,6.754043102264404,-6.390124320983887,1.280897855758667
1772734452303660800,12.947660888671875,6.588842868804932,-6.279991149902344,1.3958195447921753
1772734452313367600,12.957367431640625,6.7277069091796875,-6.078877925872803,1.4963760375976562
1772734452323406600,12.967406494140626,6.97430944442749,-6.107608318328857,1.3862427473068237
1772734452333380000,12.977380126953125,7.173028469085693,-6.155492782592773,1.216254472732544
1772734452343402000,12.987402099609374,6.998251438140869,-6.366182327270508,1.1779472827911377
1772734452353426200,12.99742626953125,7.0126166343688965,-6.6391215324401855,1.0654197931289673
1772734452364079900,13.008079833984375,7.0341644287109375,-6.8043212890625,1.1324573755264282
1772734452373448400,13.017448486328124,7.005434036254883,-6.909666061401367,1.1755530834197998
1772734452393508400,13.03750830078125,7.070077419281006,-6.904877662658691,1.2210428714752197
1772734452403849200,13.04784912109375,7.249642848968506,-6.648698329925537,1.1851298809051514
1772734452413527600,13.057527587890625,7.129932880401611,-6.382941722869873,1.1827356815338135
1772734452423548700,13.067548583984374,7.247248649597168,-6.200982570648193,1.091755986213684
1772734452433542000,13.0775419921875,7.321468830108643,-6.19379997253418,1.1540051698684692
1772734452443579100,13.0875791015625,7.299921035766602,-6.315904140472412,1.115697979927063
1772734452453555200,13.09755517578125,7.465120792388916,-6.337451934814453,1.1755530834197998
1772734452463586800,13.1075869140625,7.592013359069824,-6.4380083084106445,1.2090718746185303
1772734452473577000,13.117576904296875,7.682993412017822,-6.615179061889648,1.2689268589019775
1772734452483614200,13.1276142578125,7.4770917892456055,-6.694188117980957,1.259350061416626
1772734452504345300,13.148345458984375,7.539340972900391,-7.311892032623291,1.2330138683319092
1772734452513609000,13.15760888671875,7.503427982330322,-7.2113356590271,1.2473790645599365
1772734452524243200,13.1682431640625,7.582436561584473,-6.787561893463135,1.2234370708465576
1772734452533593600,13.177593505859376,7.690176010131836,-6.576871871948242,1.290474772453308
1772734452546109200,13.190109130859375,7.692570209503174,-6.361393928527832,1.2330138683319092
1772734452553634600,13.197634521484375,7.778761386871338,-6.2416839599609375,1.2761094570159912
1772734452563659800,13.20765966796875,7.637503623962402,-6.3063273429870605,1.1516109704971313
1772734452573617700,13.21761767578125,7.479485988616943,-6.390124320983887,1.094150185585022
1772734452583626800,13.227626708984374,7.218518257141113,-6.478709697723389,1.1061211824417114
1772734452603981800,13.24798193359375,6.8809356689453125,-6.794744491577148,1.2018892765045166
1772734452613645300,13.257645263671876,6.682217121124268,-7.010222434997559,1.1540051698684692
1772734452623653400,13.2676533203125,6.560112476348877,-7.067683219909668,1.2473790645599365
1772734452633641200,13.27764111328125,6.473921298980713,-7.058106422424316,1.2856862545013428
1772734452643708200,13.287708251953125,6.433219909667969,-7.16584587097168,1.1420341730117798
1772734452653710000,13.2977099609375,6.426037311553955,-7.117961883544922,1.1635819673538208
1772734452663766000,13.30776611328125,6.485892295837402,-7.024587631225586,1.1779472827911377
1772734452673798000,13.3177978515625,6.631938934326172,-6.983886241912842,1.0462661981582642
1772734452684480500,13.32848046875,6.627150535583496,-7.0317702293396,0.9983820915222168
1772734452705900800,13.34990087890625,6.555324077606201,-7.000645637512207,0.9696516990661621
1772734452715024600,13.359024658203126,6.550535678863525,-6.943184852600098,0.933738648891449
1772734452725098200,13.36909814453125,6.588842868804932,-6.947973251342773,0.8858546018600464
1772734452735100700,13.3791005859375,6.615179061889648,-6.97430944442749,0.8619126081466675
1772734452745277700,13.389277587890625,6.5696892738342285,-6.979097843170166,0.8906430602073669
1772734452755191800,13.39919189453125,6.5265936851501465,-6.964732646942139,0.9864110946655273
1772734452765240000,13.409239990234376,6.5696892738342285,-6.931213855743408,0.9624691009521484
1772734452775258000,13.419258056640626,6.5696892738342285,-7.094019412994385,0.9648633003234863
1772734452785319400,13.4293193359375,6.390124320983887,-7.16584587097168,1.0749965906143188
1772734452795349200,13.439349365234374,6.40927791595459,-7.091625213623047,1.0965443849563599
1772734452815427300,13.45942724609375,6.4595561027526855,-7.1251444816589355,1.0558429956436157
1772734452825502700,13.469502685546875,6.40927791595459,-7.161057472229004,1.0223240852355957
1772734452835505700,13.479505615234375,6.521805286407471,-7.194576263427734,1.0103530883789062
1772734452846172000,13.490171875,6.555324077606201,-7.223306655883789,1.0271124839782715
1772734452855577900,13.499577880859375,6.524199485778809,-7.137115478515625,1.039083480834961
1772734452868142800,13.512142822265625,6.445190906524658,-7.208941459655762,1.1444283723831177
1772734452875673600,13.519673583984375,6.404489517211914,-7.175422668457031,1.1659762859344482
1772734452885714000,13.5297138671875,6.399701118469238,-7.110779285430908,1.048660397529602
1772734452895732200,13.539732177734376,6.531382083892822,-6.979097843170166,1.036689281463623
1772734452906114800,13.55011474609375,6.584054470062256,-6.959944248199463,1.094150185585022
1772734452925853700,13.569853759765625,6.67982292175293,-7.000645637512207,1.0462661981582642
1772734452935878700,13.579878662109374,6.665457725524902,-7.048529624938965,1.161187767982483
1772734452945954000,13.5899541015625,6.722918510437012,-7.050923824310303,1.1180921792984009
1772734452955954700,13.59995458984375,6.689399719238281,-7.094019412994385,1.1324573755264282
1772734452966009000,13.610009033203125,6.763619899749756,-7.0988078117370605,1.139639973640442
1772734452976029200,13.620029296875,6.777985095977783,-7.06528902053833,1.1324573755264282
1772734452986493200,13.6304931640625,6.842628479003906,-7.000645637512207,1.094150185585022
1772734452996122000,13.6401220703125,6.885724067687988,-7.005434036254883,1.0534487962722778
1772734453007096300,13.651096435546876,6.801927089691162,-7.022193431854248,1.048660397529602
1772734453027860500,13.671860595703125,6.751648902893066,-6.979097843170166,1.1013327836990356
1772734453036304600,13.6803046875,6.756437301635742,-6.914454460144043,1.048660397529602
1772734453046356000,13.69035595703125,6.694188117980957,-6.926425457000732,1.05105459690094
1772734453056376000,13.7003759765625,6.677428722381592,-6.94079065322876,0.993593692779541
1772734453066444300,13.7104443359375,6.718130111694336,-7.050923824310303,0.9074024558067322
1772734453076459500,13.72045947265625,6.675034523010254,-7.053318023681641,0.9385270476341248
1772734453086506200,13.73050634765625,6.696582317352295,-7.024587631225586,0.9481038451194763
1772734453096524300,13.740524169921875,6.696582317352295,-7.029376029968262,1.0342950820922852
1772734453106904000,13.750904052734375,6.777985095977783,-7.062894821166992,0.9816226959228516
1772734453126655700,13.77065576171875,6.864176273345947,-6.9695210456848145,1.0582371950149536
1772734453136672500,13.780672607421875,6.914454460144043,-6.959944248199463,1.1061211824417114
1772734453146739200,13.7907392578125,6.878541469573975,-7.022193431854248,1.139639973640442
1772734453156769800,13.800769775390625,6.840234279632568,-7.043741226196289,1.1803414821624756
1772734453167427600,13.811427490234376,6.861782073974609,-7.072471618652344,1.280897855758667
1772734453176832300,13.820832275390625,7.050923824310303,-7.060500621795654,1.2665326595306396
1772734453189388800,13.833388916015625,7.350199222564697,-7.050923824310303,1.316810965538025
1772734453196938800,13.840938720703125,7.515398979187012,-7.000645637512207,1.3239935636520386
1772734453207307800,13.851307861328126,7.587224960327148,-6.94079065322876,1.3862427473068237
1772734453227096300,13.871096435546875,7.694964408874512,-6.9024834632873535,1.4413094520568848
1772734453237117700,13.88111767578125,7.671022415161133,-6.8162922859191895,1.5873557329177856
1772734453247177700,13.891177734375,7.544129371643066,-6.701370716094971,1.6639702320098877
1772734453257206300,13.901206298828125,7.491456985473633,-6.782773494720459,1.7357962131500244
1772734453267242200,13.9112421875,7.618350028991699,-7.096413612365723,1.8052281141281128
1772734453277225700,13.921225830078125,7.613561630249023,-7.156269073486328,1.8411411046981812
1772734453287238100,13.931238037109376,7.680599212646484,-7.350199222564697,1.965639591217041
1772734453297209300,13.941209228515625,7.68538761138916,-7.307103633880615,2.054224967956543
1772734453307591200,13.951591064453124,7.750030994415283,-7.285555839538574,2.073378562927246
1772734453317279200,13.961279296875,7.771578788757324,-7.249642848968506,2.0015525817871094
1772734453337349400,13.981349365234376,7.4770917892456055,-7.328651428222656,1.8602946996688843
1772734453349074400,13.993074462890625,7.417236804962158,-7.307103633880615,1.843535304069519
1772734453357444900,14.00144482421875,7.137115478515625,-6.995857238769531,2.0374655723571777
1772734453367502000,14.011502197265624,7.163451671600342,-6.952761650085449,2.1954829692840576
1772734453377520400,14.021520263671874,7.275979042053223,-6.854599475860596,2.3918075561523438
1772734453387592400,14.031592529296875,7.292738437652588,-6.603208065032959,2.3104045391082764
1772734453397613300,14.04161328125,7.280767440795898,-6.205770969390869,2.2840683460235596
1772734453407976700,14.051976806640624,7.182605266571045,-5.858611583709717,2.274491548538208
1772734453417685000,14.06168505859375,6.988674640655518,-5.659893035888672,2.1763293743133545
1772734453427774000,14.07177392578125,7.050923824310303,-5.588066577911377,2.231395959854126
1772734453447822300,14.091822265625,7.189787864685059,-5.5760955810546875,2.3702597618103027
1772734453457840000,14.101840087890626,7.228095054626465,-5.506663799285889,2.4468741416931152
1772734453467916500,14.11191650390625,7.268796443939209,-5.34625244140625,2.5977089405059814
1772734453477924000,14.121924072265625,7.314286231994629,-5.12119722366333,2.719813108444214
1772734453488588300,14.13258837890625,7.2352776527404785,-4.932055473327637,2.7437551021575928
1772734453497990100,14.141990234375,7.189787864685059,-4.728548526763916,2.738966703414917
1772734453510882800,14.1548828125,7.161057472229004,-4.481945514678955,2.7006595134735107
1772734453518453000,14.162452880859375,7.19936466217041,-4.321534156799316,2.6839001178741455
1772734453528150300,14.172150390625,7.139509677886963,-4.197035789489746,2.5330653190612793
1772734453548247300,14.192247314453125,7.086836814880371,-4.141968727111816,2.5019407272338867
1772734453558258000,14.2022578125,7.06528902053833,-4.400542736053467,2.387019157409668
1772734453568326700,14.21232666015625,6.957550048828125,-4.4723687171936035,2.300827741622925
1772734453578333000,14.2223330078125,6.971915245056152,-4.383783340454102,2.3319525718688965
1772734453588407800,14.23240771484375,6.988674640655518,-4.165910720825195,2.276885747909546
1772734453598386000,14.242385986328125,7.134721279144287,-4.039018154144287,2.27209734916687
1772734453608758300,14.25275830078125,7.067683219909668,-3.9480385780334473,2.10210919380188
1772734453618445600,14.262445556640625,7.017405033111572,-4.194641590118408,1.9752163887023926
1772734453628525600,14.272525634765625,7.024587631225586,-4.479551315307617,1.9345149993896484
1772734453638518800,14.282518798828125,7.084442615509033,-4.845864295959473,1.6735470294952393
1772734453649188900,14.29318896484375,7.268796443939209,-5.152322292327881,1.5394717454910278
1772734453658578200,14.302578125,7.457938194274902,-5.2480902671813965,1.434126853942871
1772734453670272500,14.3142724609375,7.771578788757324,-5.315127849578857,1.235408067703247
1772734453678693600,14.322693603515624,7.982268333435059,-5.408501625061035,1.0127472877502441
1772734453688749000,14.3327490234375,7.934384346008301,-5.461174011230469,0.7230489253997803
1772734453698756600,14.342756591796874,7.9415669441223145,-5.4252610206604,0.7158663272857666
1772734453709122800,14.353122802734376,7.898471355438232,-5.398924827575684,0.6823474764823914
1772734453718845000,14.362844970703126,7.8314337730407715,-5.073313236236572,0.7709329724311829
