time,seconds_elapsed,z,y,x
1772734439867304200,0.51130419921875,19.44570541381836,-0.9457096457481384,-0.9696516990661621
1772734439878076000,0.522075927734375,-0.0694318488240242,0.004788403399288654,0.004788403399288654
1772734439888086300,0.532086181640625,0,0.0694318488240242,0
1772734439898148400,0.5421484375,0.0071826050989329815,0.10055647045373917,-0.05506663769483566
1772734439908158700,0.55215869140625,-0.05267243832349777,0.10534487664699554,-0.07661445438861847
1772734439918214000,0.5622138671875,-0.016759412363171577,0.05506663769483566,0.0071826050989329815
1772734439928214000,0.572214111328125,-0.08379705995321274,0.040701430290937424,-0.09816227108240128
1772734439938287900,0.582287841796875,-0.026336219161748886,0.05027823522686958,-0.023942016065120697
1772734439948275200,0.592275146484375,-0.038307227194309235,0.0071826050989329815,0.05506663769483566
1772734439958677500,0.602677490234375,-0.009576806798577309,-0.023942016065120697,0.047884032130241394
1772734439968331800,0.612331787109375,-0.002394201699644327,0.0071826050989329815,0
1772734439978384000,0.6223837890625,0.004788403399288654,-0.002394201699644327,-0.043095629662275314
1772734439988392400,0.632392333984375,-0.009576806798577309,0.05027823522686958,0
1772734439999071700,0.64307177734375,-0.047884032130241394,0.016759412363171577,-0.023942016065120697
1772734440008452000,0.6524521484375,-0.023942016065120697,0.09816227108240128,-0.09816227108240128
1772734440020986600,0.664986572265625,-0.023942016065120697,0.0071826050989329815,-0.05746084079146385
1772734440028530200,0.6725302734375,-0.13407529890537262,0.011971008032560349,-0.07661445438861847
1772734440038594600,0.682594482421875,-0.1364694982767105,0.021547814831137657,0.031124621629714966
1772734440048593700,0.69259375,-0.090979665517807,0.07182604819536209,0.0694318488240242
1772734440058989300,0.7029892578125,-0.023942016065120697,0.1149216815829277,0.06464344263076782
1772734440068686300,0.712686279296875,0.09576806426048279,0.19393034279346466,-0.011971008032560349
1772734440088756500,0.732756591796875,0.023942016065120697,-0.040701430290937424,-0.19393034279346466
1772734440098819600,0.742819580078125,-0.06224924325942993,-0.0933738648891449,-0.19632454216480255
1772734440108827100,0.7528271484375,-0.20350714027881622,-0.1867477297782898,-0.026336219161748886
1772734440118914000,0.7629140625,-0.3280056416988373,-0.26096799969673157,0.026336219161748886
1772734440128901400,0.7729013671875,-0.24899697303771973,-0.05506663769483566,0.035913024097681046
1772734440138960400,0.78296044921875,-0.16519992053508759,0.14365209639072418,0.11013327538967133
1772734440148961800,0.7929619140625,0.040701430290937424,0.3495534360408783,-0.026336219161748886
1772734440159966200,0.80396630859375,0.3495534360408783,0.8092401623725891,-0.17956513166427612
1772734440169043000,0.81304296875,0.2777273952960968,0.6224924325942993,-0.2992752194404602
1772734440180707000,0.82470703125,0.21308395266532898,0.2753331959247589,-0.3232172429561615
1772734440199264000,0.843263916015625,0.014365210197865963,-0.1412578970193863,-0.21308395266532898
1772734440209290200,0.853290283203125,-0.05267243832349777,-0.15562310814857483,-0.21308395266532898
1772734440219344100,0.86334423828125,-0.040701430290937424,-0.0694318488240242,-0.22266076505184174
1772734440229368000,0.8733681640625,-0.05027823522686958,0,-0.3902548849582672
1772734440239436800,0.883436767578125,0,0.17717093229293823,-0.49799394607543945
1772734440249441800,0.89344189453125,-0.06224924325942993,0.2968810200691223,-0.6177040338516235
1772734440259804000,0.903803955078125,0.002394201699644327,0.5626373887062073,-0.6967126727104187
1772734440269522700,0.913522705078125,0.0071826050989329815,0.8643068075180054,-0.8403648138046265
1772734440279590400,0.92359033203125,-0.05267243832349777,0.9074024558067322,-0.8643068075180054
1772734440309701000,0.953701171875,-0.3447650372982025,0.28969839215278625,-0.9959878921508789
1772734440320386000,0.964385986328125,-0.36152446269989014,0,-0.8667010068893433
1772734440329781500,0.973781494140625,-0.2537853717803955,-0.2513911724090576,-0.5578489899635315
1772734440342321400,0.9863212890625,-0.2801215946674347,-0.35434186458587646,-0.38067805767059326
1772734440349910800,0.993910888671875,-0.272938996553421,-0.24899697303771973,-0.33039984107017517
1772734440360277200,1.00427734375,-0.38546648621559143,0.043095629662275314,-0.2106897532939911
1772734440369966600,1.013966552734375,-0.42856210470199585,0.22505496442317963,-0.3471592366695404
1772734440380017400,1.024017333984375,-0.4884171485900879,0.09576806426048279,-0.4118026793003082
1772734440410117600,1.05411767578125,-0.6416460275650024,-0.06703764945268631,-0.42377370595932007
1772734440420169200,1.064169189453125,-0.5770025849342346,-0.2537853717803955,-0.3734954595565796
1772734440430188300,1.074188232421875,-0.2561795711517334,-0.6631938815116882,-0.19871874153614044
1772734440440265200,1.08426513671875,-0.1173158809542656,-0.9792284965515137,0.11013327538967133
1772734440450294000,1.0942939453125,-0.019153613597154617,-1.0582371950149536,0.5746083855628967
1772734440460630000,1.104630126953125,0.06224924325942993,-0.7996633648872375,0.9576807022094727
1772734440470338600,1.114338623046875,0.08858546614646912,-0.8307880163192749,1.3311761617660522
1772734440481007600,1.125007568359375,-0.06224924325942993,-0.6344634294509888,1.501164436340332
1772734440502096000,1.146095947265625,-0.8188169598579407,-0.7972691655158997,1.6950948238372803
1772734440510495000,1.154494873046875,-1.2090718746185303,-1.0103530883789062,1.8124107122421265
1772734440520543700,1.164543701171875,-1.3718775510787964,-1.0462661981582642,1.6879122257232666
1772734440530526700,1.174526611328125,-1.5275006294250488,-1.3742717504501343,1.7070658206939697
1772734440540561200,1.18456103515625,-1.3742717504501343,-1.53707754611969,1.7597382068634033
1772734440550565000,1.194565185546875,-0.9768342971801758,-1.7860745191574097,1.9369091987609863
1772734440560932900,1.204932861328125,-0.751779317855835,-1.802833914756775,2.049436569213867
1772734440570588400,1.21458837890625,-0.5841852426528931,-1.8555063009262085,2.3080103397369385
1772734440580616400,1.224616455078125,-0.42377370595932007,-1.5466543436050415,2.2816741466522217
1772734440590625800,1.234625732421875,-0.7350199222564697,-1.4484920501708984,2.516305923461914
1772734440620683800,1.264683837890625,-2.1045033931732178,-1.3072341680526733,2.1116859912872314
1772734440630686000,1.27468603515625,-2.1523873805999756,-1.7334020137786865,2.0590133666992188
1772734440641350100,1.28535009765625,-2.013523578643799,-1.920149803161621,1.8100165128707886
1772734440650721800,1.2947216796875,-1.3503297567367554,-2.166752576828003,2.3511061668395996
1772734440663572700,1.30757275390625,-1.1300631761550903,-1.7932571172714233,2.3702597618103027
1772734440672808200,1.31680810546875,-1.3934253454208374,-1.680729627609253,2.5785553455352783
1772734440682854000,1.32685400390625,-1.3862427473068237,-1.5418659448623657,2.387019157409668
1772734440692830700,1.336830810546875,-1.3048399686813354,-1.5969325304031372,2.22660756111145
1772734440722939600,1.366939697265625,-1.4245500564575195,-0.9624691009521484,1.8076223134994507
1772734440732944400,1.3769443359375,-1.194706678390503,-1.3263877630233765,1.9369091987609863
1772734440742954200,1.386954345703125,-0.8427590131759644,-1.5466543436050415,1.867477297782898
1772734440752960800,1.396960693359375,-0.912190854549408,-1.6160861253738403,1.8914192914962769
1772734440763328500,1.40732861328125,-0.790086567401886,-1.45806884765625,1.50355863571167
1772734440772995000,1.4169951171875,-0.7996633648872375,-1.41257905960083,1.436521053314209
1772734440783047200,1.427047119140625,-0.4189853072166443,-1.194706678390503,1.158793568611145
1772734440793043700,1.437043701171875,-0.021547814831137657,-1.0199298858642578,1.139639973640442
1772734440803695000,1.447695068359375,0.21308395266532898,-0.4596867263317108,0.8571242094039917
1772734440824691500,1.46869140625,0.3447650372982025,-0.3495534360408783,0.45010992884635925
1772734440833125600,1.477125732421875,0.45010992884635925,-0.5937620401382446,0.3519476354122162
1772734440843172900,1.4871728515625,0.5626373887062073,-0.5650315880775452,0.043095629662275314
1772734440853154000,1.497154052734375,0.4692635238170624,-0.4405331015586853,-0.24899697303771973
1772734440863496400,1.507496337890625,0.3423708379268646,-0.019153613597154617,-0.5123591423034668
1772734440873191700,1.517191650390625,0.3471592366695404,0.1364694982767105,-0.5722141861915588
1772734440883241700,1.52724169921875,0.49559974670410156,0.2944868206977844,-0.7445967197418213
1772734440893217000,1.537217041015625,0.6392518281936646,0.5434837937355042,-0.8762778043746948
1772734440923277800,1.56727783203125,0.5099649429321289,0.7015010714530945,-1.1851298809051514
1772734440933258200,1.57725830078125,0.2537853717803955,0.7206547260284424,-1.2449848651885986
1772734440943284000,1.587283935546875,0.20111294090747833,0.6153098344802856,-1.1875240802764893
1772734440953297200,1.597297119140625,0.3519476354122162,0.5602431893348694,-1.1468225717544556
1772734440964253400,1.60825341796875,0.3878606855869293,0.16759411990642548,-0.8882488012313843
1772734440973316400,1.61731640625,0.4884171485900879,-0.07422025501728058,-0.9002198576927185
1772734440985832700,1.629832763671875,0.4620809257030487,-0.35913026332855225,-0.7829039692878723
1772734440993364700,1.63736474609375,0.43335050344467163,-0.47644615173339844,-0.667982280254364
1772734441003407400,1.647407470703125,0.07661445438861847,-0.49559974670410156,-0.395043283700943
1772734441033434600,1.6774345703125,-0.689530074596405,-0.7733271718025208,-0.13407529890537262
1772734441043470000,1.687469970703125,-0.6799532771110535,-0.6105214357376099,-0.16519992053508759
1772734441053446700,1.69744677734375,-0.6033388376235962,-0.5027823448181152,-0.3519476354122162
1772734441063788500,1.70778857421875,-0.33279404044151306,-0.33518823981285095,-0.33997663855552673
1772734441073647400,1.7176474609375,-0.18914192914962769,-0.3232172429561615,-0.40701428055763245
1772734441083529500,1.727529541015625,-0.047884032130241394,-0.14365209639072418,-0.3734954595565796
1772734441093505800,1.737505859375,0.07900865375995636,-0.023942016065120697,-0.40462008118629456
1772734441103527700,1.747527587890625,0.2585737705230713,-0.035913024097681046,-0.3663128614425659
1772734441133590300,1.77759033203125,-0.24899697303771973,-0.09576806426048279,-0.12210428714752197
1772734441145250800,1.789250732421875,-0.1388636976480484,-0.08858546614646912,-0.21308395266532898
1772734441153644000,1.79764404296875,0,-0.05027823522686958,-0.29209262132644653
1772734441163995000,1.807994873046875,0.20350714027881622,0.18914192914962769,-0.31603461503982544
1772734441173671400,1.81767138671875,0.40222588181495667,0.4668693244457245,-0.3878606855869293
1772734441183691500,1.82769140625,0.47644615173339844,0.4596867263317108,-0.3974374830722809
1772734441193699000,1.837698974609375,0.3208230137825012,0.5386953949928284,-0.4572925269603729
1772734441203734800,1.84773486328125,0.22505496442317963,0.30885201692581177,-0.3974374830722809
1772734441213706200,1.857706298828125,0.026336219161748886,0.2106897532939911,-0.31842881441116333
1772734441243768300,1.887768310546875,0.0071826050989329815,0.06224924325942993,-0.12928688526153564
1772734441253740800,1.89774072265625,0.3663128614425659,0.15322890877723694,-0.1843535304069519
1772734441264082700,1.908082763671875,0.38546648621559143,0.26336219906806946,-0.21787235140800476
1772734441273789000,1.917788818359375,0.40222588181495667,0.2753331959247589,-0.26815059781074524
1772734441284440600,1.928440673828125,0.5339069962501526,0.33758243918418884,-0.2585737705230713
1772734441293807400,1.937807373046875,0.43335050344467163,0.3232172429561615,-0.17956513166427612
1772734441306313000,1.95031298828125,0.33758243918418884,0.3208230137825012,-0.10773907601833344
1772734441313865500,1.957865478515625,0.33758243918418884,0.35913026332855225,-0.07661445438861847
1772734441343912200,1.987912109375,-0.33758243918418884,-0.11252748221158981,0.0071826050989329815
1772734441353928200,1.99792822265625,-0.272938996553421,-0.19632454216480255,0.0071826050989329815
1772734441364288800,2.008288818359375,-0.15801730751991272,-0.22505496442317963,-0.043095629662275314
1772734441373946000,2.017946044921875,-0.22026655077934265,-0.07182604819536209,-0.004788403399288654
1772734441383964000,2.0279638671875,-0.1149216815829277,0.05267243832349777,0.021547814831137657
1772734441393967900,2.0379677734375,-0.09816227108240128,0.009576806798577309,0.11971008777618408
1772734441404000000,2.048,-0.1364694982767105,-0.26336219906806946,0.1364694982767105
1772734441413985800,2.05798583984375,-0.2561795711517334,-0.395043283700943,0.17717093229293823
1772734441424007000,2.0680068359375,-0.35673606395721436,-0.38067805767059326,0.2082955539226532
1772734441454031600,2.098031494140625,-0.23702596127986908,-0.038307227194309235,0.2585737705230713
1772734441465951000,2.109950927734375,-0.12210428714752197,0.1867477297782898,0.1412578970193863
1772734441474073000,2.118072998046875,0.043095629662275314,0.20350714027881622,0.12449848651885986
1772734441484109000,2.128109130859375,0.035913024097681046,0.2849099934101105,0.06224924325942993
1772734441494089500,2.13808935546875,0.011971008032560349,0.1173158809542656,0.05267243832349777
1772734441504119300,2.148119384765625,-0.011971008032560349,0.05746084079146385,0.06464344263076782
1772734441514155000,2.158155029296875,0.028730420395731926,0.12689268589019775,0
1772734441524205300,2.168205322265625,-0.05267243832349777,0.10773907601833344,-0.07900865375995636
1772734441534193200,2.178193115234375,-0.10055647045373917,0.05746084079146385,-0.10295066982507706
1772734441554241000,2.198240966796875,0.14604631066322327,0.05506663769483566,-0.13168109953403473
1772734441564612000,2.208612060546875,0.30885201692581177,0.10055647045373917,-0.1364694982767105
1772734441574289000,2.218288818359375,0.3447650372982025,0.07422025501728058,-0.2322375625371933
1772734441584322600,2.228322509765625,0.2944868206977844,0.07900865375995636,-0.2777273952960968
1772734441594326300,2.238326171875,0.21787235140800476,0.1412578970193863,-0.2968810200691223
1772734441604990500,2.248990478515625,0.14604631066322327,0.07900865375995636,-0.2992752194404602
1772734441614367200,2.2583671875,-0.011971008032560349,0.15562310814857483,-0.1628057211637497
1772734441626895000,2.27089501953125,-0.10534487664699554,0.2106897532939911,-0.21787235140800476
1772734441654490000,2.298489990234375,-0.12449848651885986,-0.033518824726343155,-0.1388636976480484
1772734441664832000,2.30883203125,-0.019153613597154617,-0.0454898327589035,-0.1149216815829277
1772734441684602600,2.3286025390625,-0.05985504388809204,0.07182604819536209,-0.16998831927776337
1772734441694598400,2.338598388671875,0.002394201699644327,0.11252748221158981,-0.13407529890537262
1772734441704661200,2.3486611328125,0.026336219161748886,0.16519992053508759,-0.05506663769483566
1772734441714668800,2.358668701171875,0.06224924325942993,0.15801730751991272,0.019153613597154617
1772734441724723500,2.368723388671875,-0.08619125932455063,0.17717093229293823,0
1772734441734713900,2.3787138671875,-0.12689268589019775,0.090979665517807,0.08619125932455063
1772734441754785300,2.398785400390625,-0.23942017555236816,-0.05506663769483566,0.19153612852096558
1772734441765762300,2.40976220703125,-0.2059013396501541,-0.1173158809542656,0.07661445438861847
1772734441774835200,2.418835205078125,-0.10534487664699554,-0.05746084079146385,0.0454898327589035
1772734441786504000,2.43050390625,-0.038307227194309235,0.004788403399288654,0.1412578970193863
1772734441794918000,2.43891796875,0.031124621629714966,-0.0454898327589035,0.11013327538967133
1772734441804967700,2.4489677734375,0.004788403399288654,0.15801730751991272,0.1173158809542656
1772734441814950400,2.458950439453125,-0.014365210197865963,0.0933738648891449,0.17477671802043915
1772734441824980000,2.46897998046875,-0.05027823522686958,0.19153612852096558,0.1412578970193863
1772734441835006500,2.47900634765625,-0.08619125932455063,0.06464344263076782,0.12928688526153564
1772734441845057000,2.48905712890625,-0.10295066982507706,0.1149216815829277,0.15562310814857483
1772734441875076900,2.519076904296875,-0.1149216815829277,0.1364694982767105,0.12210428714752197
1772734441885130200,2.529130126953125,-0.13168109953403473,0.1843535304069519,0.13407529890537262
1772734441895110700,2.539110595703125,-0.19871874153614044,0.26575639843940735,0.06224924325942993
1772734441905142500,2.549142578125,-0.08379705995321274,0.2106897532939911,0.09816227108240128
1772734441915172900,2.5591728515625,-0.10773907601833344,0.17477671802043915,0.08619125932455063
1772734441925830700,2.56983056640625,-0.22744916379451752,0.17238251864910126,0.12689268589019775
1772734441935199700,2.57919970703125,-0.14604631066322327,0.13407529890537262,0.11013327538967133
1772734441947726300,2.591726318359375,-0.06224924325942993,0.10295066982507706,0.016759412363171577
1772734441975311000,2.61931103515625,0.0071826050989329815,0.014365210197865963,0.10055647045373917
1772734441985345300,2.62934521484375,0.035913024097681046,-0.06464344263076782,0.14604631066322327
1772734441995356200,2.639356201171875,-0.004788403399288654,-0.08140286058187485,0.1364694982767105
1772734442005407000,2.649406982421875,-0.0933738648891449,-0.08379705995321274,0.16998831927776337
1772734442015388700,2.659388671875,-0.07900865375995636,-0.15801730751991272,0.12689268589019775
1772734442025421300,2.66942138671875,-0.12210428714752197,0.023942016065120697,0.05746084079146385
1772734442035488000,2.679488037109375,-0.026336219161748886,-0.026336219161748886,0.10534487664699554
1772734442045479700,2.689479736328125,0.028730420395731926,0.009576806798577309,0.009576806798577309
1772734442055457000,2.69945703125,0.05027823522686958,0.040701430290937424,-0.023942016065120697
1772734442086186000,2.73018603515625,-0.05267243832349777,0.13168109953403473,0.05746084079146385
1772734442095565800,2.73956591796875,-0.0454898327589035,-0.014365210197865963,0.05267243832349777
1772734442107211300,2.751211181640625,-0.033518824726343155,0.0454898327589035,-0.040701430290937424
1772734442115646200,2.759646240234375,-0.07182604819536209,0.10534487664699554,0.023942016065120697
1772734442125707000,2.76970703125,-0.08619125932455063,0.08619125932455063,0
1772734442135709400,2.77970947265625,-0.023942016065120697,0.14365209639072418,-0.002394201699644327
1772734442145748200,2.789748291015625,-0.10773907601833344,0.14604631066322327,-0.002394201699644327
1772734442155773400,2.7997734375,-0.047884032130241394,0.08140286058187485,-0.028730420395731926
1772734442166140200,2.81014013671875,-0.07661445438861847,0.05985504388809204,-0.1388636976480484
1772734442195908000,2.839908203125,-0.019153613597154617,0,-0.12210428714752197
1772734442205973000,2.849972900390625,-0.05746084079146385,0,-0.009576806798577309
1772734442215973600,2.8599736328125,-0.08379705995321274,0.08858546614646912,-0.0454898327589035
1772734442226018600,2.8700185546875,-0.1364694982767105,0.05027823522686958,-0.021547814831137657
1772734442236037000,2.880037109375,-0.090979665517807,0.021547814831137657,-0.07900865375995636
1772734442246716700,2.890716552734375,-0.11013327538967133,-0.028730420395731926,-0.0933738648891449
1772734442256105700,2.900105712890625,-0.09576806426048279,-0.026336219161748886,-0.06703764945268631
1772734442268980000,2.91297998046875,0.10055647045373917,0.023942016065120697,-0.10295066982507706
1772734442286272500,2.9302724609375,-0.11971008777618408,0.05267243832349777,-0.07661445438861847
1772734442296276500,2.9402763671875,-0.07661445438861847,0.028730420395731926,-0.15562310814857483
1772734442306327800,2.950327880859375,0.016759412363171577,0.05267243832349777,-0.11013327538967133
1772734442316373800,2.960373779296875,0.004788403399288654,0.05506663769483566,-0.07661445438861847
1772734442326441500,2.97044140625,0.002394201699644327,0.05985504388809204,-0.12689268589019775
1772734442336429300,2.98042919921875,0.0694318488240242,0.07182604819536209,-0.10534487664699554
1772734442346466800,2.990466796875,-0.004788403399288654,0.1364694982767105,-0.05985504388809204
1772734442356481300,3.000481201171875,-0.0933738648891449,0.009576806798577309,-0.05746084079146385
1772734442366844700,3.0108447265625,-0.038307227194309235,-0.019153613597154617,-0.0454898327589035
1772734442376518400,3.020518310546875,-0.07661445438861847,-0.10295066982507706,0
1772734442407217700,3.0512177734375,-0.11971008777618408,-0.10773907601833344,0.033518824726343155
1772734442416594700,3.0605947265625,-0.040701430290937424,-0.10055647045373917,-0.09576806426048279
1772734442428266000,3.072265869140625,-0.08858546614646912,-0.0454898327589035,-0.028730420395731926
1772734442436660700,3.08066064453125,-0.08379705995321274,-0.06703764945268631,0.05506663769483566
1772734442446708000,3.0907080078125,-0.12689268589019775,-0.043095629662275314,0.10534487664699554
1772734442456686300,3.100686279296875,-0.14365209639072418,-0.07900865375995636,0.14365209639072418
1772734442467063600,3.1110634765625,-0.09816227108240128,-0.026336219161748886,0.16998831927776337
1772734442476801000,3.120801025390625,-0.040701430290937424,-0.1412578970193863,0.13168109953403473
1772734442486905600,3.130905517578125,-0.05267243832349777,-0.12449848651885986,0.1173158809542656
1772734442517066500,3.16106640625,-0.11252748221158981,-0.043095629662275314,-0.021547814831137657
1772734442527159600,3.17115966796875,-0.05267243832349777,-0.09816227108240128,-0.0454898327589035
1772734442537187000,3.18118701171875,-0.031124621629714966,-0.1867477297782898,-0.06464344263076782
1772734442547270400,3.1912705078125,0.014365210197865963,-0.05027823522686958,-0.09816227108240128
1772734442557320700,3.20132080078125,-0.05746084079146385,-0.07182604819536209,-0.035913024097681046
1772734442568337000,3.2123369140625,0.002394201699644327,0.011971008032560349,-0.08619125932455063
1772734442577455000,3.221455078125,0,0.10295066982507706,-0.12449848651885986
1772734442590015200,3.23401513671875,-0.0454898327589035,0.2082955539226532,-0.07661445438861847
1772734442617711600,3.261711669921875,0.002394201699644327,0.08858546614646912,-0.1149216815829277
1772734442627796500,3.27179638671875,-0.181959331035614,0.2849099934101105,-0.090979665517807
1772734442637812700,3.281812744140625,-0.07900865375995636,0.2561795711517334,-0.0933738648891449
1772734442647850200,3.291850341796875,-0.1628057211637497,0.21787235140800476,-0.16519992053508759
1772734442657851100,3.30185107421875,-0.16998831927776337,0.023942016065120697,-0.17956513166427612
1772734442668225000,3.31222509765625,-0.26336219906806946,-0.035913024097681046,-0.19393034279346466
1772734442677966600,3.321966552734375,-0.14844051003456116,-0.16519992053508759,-0.13168109953403473
1772734442688043800,3.332043701171875,-0.15562310814857483,-0.1867477297782898,-0.08858546614646912
1772734442698090500,3.342090576171875,-0.17477671802043915,-0.12689268589019775,0.021547814831137657
1772734442728923100,3.372923095703125,-0.07422025501728058,0.13407529890537262,-0.016759412363171577
1772734442738358300,3.382358154296875,-0.12449848651885986,0.031124621629714966,0.08379705995321274
1772734442750051000,3.394051025390625,-0.13407529890537262,-0.016759412363171577,0.16759411990642548
1772734442758511000,3.402510986328125,-0.2298433631658554,-0.023942016065120697,0.19393034279346466
1772734442768897800,3.412897705078125,-0.14604631066322327,-0.15562310814857483,0.1604115068912506
1772734442778627000,3.422626953125,-0.05027823522686958,-0.20350714027881622,0.17477671802043915
1772734442788712000,3.4327119140625,-0.047884032130241394,-0.10055647045373917,0.14844051003456116
1772734442798731500,3.4427314453125,-0.07900865375995636,-0.016759412363171577,0.07182604819536209
1772734442808803000,3.452802978515625,-0.026336219161748886,0.05027823522686958,0.05267243832349777
1772734442828938500,3.4729384765625,0,0,0.1149216815829277
1772734442838966300,3.48296630859375,-0.05746084079146385,0.10295066982507706,0.05506663769483566
1772734442849043700,3.493043701171875,-0.07422025501728058,0.0694318488240242,0.05746084079146385
1772734442859059200,3.50305908203125,-0.09576806426048279,0.038307227194309235,0.06703764945268631
1772734442869430000,3.513429931640625,0.028730420395731926,-0.028730420395731926,0.002394201699644327
1772734442879124200,3.523124267578125,0.0071826050989329815,0.0071826050989329815,-0.05027823522686958
1772734442889812500,3.5338125,-0.07661445438861847,-0.05267243832349777,0.038307227194309235
1772734442899249000,3.543248779296875,0.05267243832349777,-0.035913024097681046,-0.0454898327589035
1772734442911810600,3.555810546875,0.12210428714752197,-0.0454898327589035,-0.0694318488240242
1772734442929470700,3.573470703125,0.047884032130241394,-0.026336219161748886,-0.19871874153614044
1772734442939522300,3.583522216796875,-0.0071826050989329815,-0.047884032130241394,-0.14604631066322327
1772734442949615400,3.593615478515625,0.11971008777618408,0.05267243832349777,-0.15562310814857483
1772734442959650800,3.60365087890625,0.14844051003456116,0.10055647045373917,-0.07422025501728058
1772734442970028300,3.6140283203125,0.22744916379451752,0.07422025501728058,-0.17238251864910126
1772734442979718400,3.623718505859375,0.1867477297782898,0.0933738648891449,-0.1628057211637497
1772734442989771300,3.633771240234375,0.1867477297782898,0.07900865375995636,-0.1149216815829277
1772734442999768300,3.643768310546875,0.11252748221158981,0.05746084079146385,-0.08379705995321274
1772734443009798400,3.65379833984375,0.028730420395731926,0.19393034279346466,-0.15562310814857483
1772734443019798800,3.663798828125,0.035913024097681046,0.11252748221158981,-0.05506663769483566
1772734443050498800,3.694498779296875,0.21547815203666687,0.028730420395731926,-0.18914192914962769
1772734443059889200,3.70388916015625,0.35673606395721436,0.10295066982507706,-0.24181437492370605
1772734443071888100,3.71588818359375,0.5386953949928284,-0.002394201699644327,-0.2537853717803955
1772734443079955500,3.72395556640625,0.7948749661445618,-0.07900865375995636,-0.33518823981285095
1772734443089996500,3.73399658203125,0.8427590131759644,-0.1149216815829277,-0.33279404044151306
1772734443100000800,3.744000732421875,0.9696516990661621,0.0071826050989329815,-0.3064578175544739
1772734443110051300,3.75405126953125,1.048660397529602,-0.019153613597154617,-0.2346317619085312
1772734443120064300,3.764064208984375,1.2306196689605713,0.1149216815829277,-0.15322890877723694
1772734443150164200,3.794164306640625,1.3838485479354858,0.4908113479614258,0.05746084079146385
1772734443160185000,3.80418505859375,1.3862427473068237,0.6153098344802856,0.05267243832349777
1772734443170574000,3.814573974609375,1.4269442558288574,0.5770025849342346,0.05027823522686958
1772734443180302600,3.824302490234375,1.4101848602294922,0.5482721924781799,-0.0454898327589035
1772734443190386400,3.834386474609375,1.4293384552001953,0.5123591423034668,0.08619125932455063
1772734443200409900,3.844409912109375,1.4891934394836426,0.6272808313369751,0.08379705995321274
1772734443211093500,3.855093505859375,1.4915876388549805,0.730231523513794,0.1364694982767105
1772734443220523300,3.864523193359375,1.5083470344543457,0.7781155705451965,0.23702596127986908
1772734443233100300,3.877100341796875,1.237802267074585,0.6344634294509888,0.2753331959247589
1772734443260782800,3.904782958984375,1.070208191871643,0.29209262132644653,0.4165911078453064
1772734443271186200,3.915186279296875,0.8858546018600464,0.18914192914962769,0.45250412821769714
1772734443280905500,3.924905517578125,1.0606313943862915,0.31603461503982544,0.5913678407669067
1772734443290974500,3.934974365234375,1.0654197931289673,0.20350714027881622,0.49559974670410156
1772734443301024300,3.945024169921875,1.1228805780410767,0.3471592366695404,0.5195417404174805
1772734443311119600,3.95511962890625,1.0821791887283325,0.17477671802043915,0.3208230137825012
1772734443321141800,3.965141845703125,0.7493851184844971,0.28730419278144836,0.5219359993934631
1772734443331218000,3.975218017578125,0.22505496442317963,0.19393034279346466,0.5386953949928284
1772734443341268700,3.985268798828125,-0.19393034279346466,0.22505496442317963,0.6248866319656372
1772734443372372000,4.0163720703125,-0.7733271718025208,-0.49799394607543945,0.7541735172271729
1772734443381509000,4.025509033203125,-0.3758896589279175,-0.12928688526153564,1.1252747774124146
1772734443393192200,4.037192138671875,-0.0454898327589035,0.08858546614646912,1.256955862045288
1772734443401657900,4.045657958984375,0.08379705995321274,0.3256114423274994,1.5059528350830078
1772734443411730200,4.055730224609375,0.15562310814857483,0.545877993106842,1.5203180313110352
1772734443421765600,4.065765625,0.31842881441116333,0.5985504388809204,1.6831238269805908
1772734443431863000,4.075863037109375,0.5722141861915588,0.6200982332229614,1.6831238269805908
1772734443441880000,4.085880126953125,0.5267243981361389,0.5626373887062073,2.032677173614502
1772734443472419600,4.116419677734375,1.1252747774124146,0.0694318488240242,2.9759926795959473
1772734443482124300,4.126124267578125,0.9050082564353943,0.26575639843940735,3.222595453262329
1772734443492152300,4.13615234375,0.5386953949928284,0.07900865375995636,3.361459255218506
1772734443502137300,4.146137451171875,0.31364041566848755,0.13168109953403473,3.4308910369873047
1772734443512170000,4.156169921875,0.1173158809542656,-0.10055647045373917,3.56017804145813
1772734443522207700,4.166207763671875,0.002394201699644327,0.22744916379451752,3.5266590118408203
1772734443532811000,4.17681103515625,-0.29209262132644653,0.1173158809542656,3.576937437057495
1772734443542188500,4.1861884765625,-0.2106897532939911,0.22026655077934265,3.7612907886505127
1772734443572560100,4.21656005859375,-0.7948749661445618,-0.1149216815829277,3.6104562282562256
1772734443592267300,4.236267333984375,-1.4939818382263184,-0.569819986820221,3.2082302570343018
1772734443602238500,4.246238525390625,-1.802833914756775,-0.6655880808830261,2.9496564865112305
1772734443612249000,4.2562490234375,-2.008735179901123,-0.7829039692878723,2.7293899059295654
1772734443622253300,4.26625341796875,-2.0829553604125977,-0.6368576288223267,2.5905263423919678
1772734443632315400,4.2763154296875,-2.31758713722229,-0.3758896589279175,2.1140801906585693
1772734443642316500,4.286316650390625,-2.63362193107605,-0.21547815203666687,1.886630892753601
1772734443672768800,4.316768798828125,-3.4787750244140625,0.5506663918495178,0.6440402865409851
1772734443693148700,4.337148681640625,-3.6320040225982666,0.5147533416748047,0.26575639843940735
1772734443702627600,4.346627685546875,-3.4356794357299805,0.1412578970193863,0.11013327538967133
1772734443714273000,4.35827294921875,-3.488351821899414,-0.2322375625371933,-0.10773907601833344
1772734443722656800,4.36665673828125,-3.552995204925537,-0.44532153010368347,-0.6440402865409851
1772734443732706000,4.3767060546875,-3.8067808151245117,-0.5889736413955688,-0.849941611289978
1772734443742722000,4.38672216796875,-3.708618402481079,-0.33039984107017517,-1.4317326545715332
1772734443752792600,4.39679248046875,-3.555389642715454,-0.27054479718208313,-1.7357962131500244
1772734443782882300,4.42688232421875,-3.397372245788574,0.5913678407669067,-2.2194249629974365
1772734443792950300,4.4369501953125,-3.378218650817871,0.4908113479614258,-2.2816741466522217
1772734443802948600,4.446948486328125,-3.004723072052002,0.5602431893348694,-2.449268341064453
1772734443813000200,4.457000244140625,-2.782062292098999,0.17956513166427612,-2.3798365592956543
1772734443823027700,4.46702783203125,-2.5905263423919678,0.05027823522686958,-2.8443117141723633
1772734443833105400,4.47710546875,-2.1739351749420166,-0.5817909836769104,-2.9065608978271484
1772734443843125500,4.48712548828125,-1.778891921043396,-0.45489832758903503,-3.2082302570343018
1772734443853791000,4.497791015625,-1.556231141090393,-0.5722141861915588,-3.4189200401306152
1772734443876094000,4.520093994140625,-1.1300631761550903,0.35673606395721436,-3.7421371936798096
1772734443883661300,4.527661376953125,-0.6440402865409851,2.4612393379211426,-4.027047157287598
1772734443893361200,4.537361083984375,-0.05506663769483566,2.5330653190612793,-3.667917013168335
1772734443903385600,4.547385498046875,0.2322375625371933,2.8658595085144043,-3.734954595565796
1772734443913456000,4.5574560546875,0.5434837937355042,2.1499931812286377,-3.428496837615967
1772734443923489300,4.5674892578125,0.33039984107017517,1.7190368175506592,-3.3207578659057617
1772734443933537800,4.577537841796875,0.21787235140800476,1.036689281463623,-3.0119056701660156
1772734443943576600,4.58757666015625,-0.002394201699644327,0.912190854549408,-2.9903578758239746
1772734443953648000,4.597648193359375,0.05746084079146385,0.811634361743927,-3.002328872680664
1772734443983729400,4.6277294921875,-0.4357447028160095,0.3902548849582672,-2.63362193107605
1772734443993802000,4.637802001953125,-0.7350199222564697,0.10773907601833344,-2.027888774871826
1772734444003801900,4.6478017578125,-0.9026140570640564,-0.0694318488240242,-1.656787633895874
1772734444014460200,4.658460205078125,-0.912190854549408,-0.1173158809542656,-1.1085153818130493
1772734444023868700,4.66786865234375,-0.8571242094039917,-0.09576806426048279,-0.7637503147125244
1772734444035526400,4.6795263671875,-0.7661445140838623,-0.047884032130241394,-0.4620809257030487
1772734444043963100,4.687963134765625,-0.6512228846549988,0.1412578970193863,-0.5602431893348694
1772734444054011000,4.698010986328125,-0.5363011956214905,0.22744916379451752,-0.44532153010368347
1772734444084114700,4.72811474609375,0.028730420395731926,0.43095630407333374,-0.8236053586006165
1772734444094171400,4.73817138671875,-0.06464344263076782,0.5051765441894531,-0.5602431893348694
1772734444104191500,4.74819140625,-0.014365210197865963,0.5051765441894531,-0.4429273009300232
1772734444114261200,4.75826123046875,-0.09576806426048279,0.49799394607543945,-0.2777273952960968
1772734444124274400,4.7682744140625,0.07422025501728058,0.5099649429321289,-0.42377370595932007
1772734444134336300,4.778336181640625,0.13407529890537262,0.6129156351089478,-0.35913026332855225
1772734444144407600,4.788407470703125,0.2059013396501541,0.6033388376235962,-0.3926490843296051
1772734444154372000,4.7983720703125,0.3471592366695404,0.5195417404174805,-0.3878606855869293
1772734444164358400,4.8083583984375,0.45489832758903503,0.35913026332855225,-0.3974374830722809
1772734444184384300,4.82838427734375,-0.35434186458587646,0.31124621629714966,-0.7972691655158997
1772734444196904400,4.840904541015625,-0.7015010714530945,0.30885201692581177,-0.8978256583213806
1772734444204420600,4.848420654296875,-0.43095630407333374,0.31364041566848755,-0.8906430602073669
1772734444214439200,4.858439208984375,-0.08619125932455063,0.3687070608139038,-0.9050082564353943
1772734444224438000,4.86843798828125,-0.21547815203666687,0.9983820915222168,-0.9433154463768005
1772734444234473500,4.878473388671875,-0.2513911724090576,1.4532804489135742,-0.9074024558067322
1772734444244446700,4.88844677734375,-0.17477671802043915,1.8794482946395874,-0.8810662031173706
1772734444254676700,4.8986767578125,-0.3926490843296051,1.9560627937316895,-0.9217676520347595
1772734444264468700,4.90846875,-0.6368576288223267,2.123656988143921,-1.2976573705673218
1772734444294519300,4.938519287109375,-0.5746083855628967,1.4484920501708984,-1.4173674583435059
1772734444304537000,4.948537109375,-0.3758896589279175,1.280897855758667,-1.4413094520568848
1772734444314584300,4.958584228515625,-0.16998831927776337,1.2282254695892334,-1.316810965538025
1772734444324590600,4.968590576171875,-0.5171475410461426,1.2689268589019775,-1.1540051698684692
1772734444335225300,4.979225341796875,-0.6224924325942993,1.113303780555725,-0.8020575642585754
1772734444344604700,4.988604736328125,-0.7445967197418213,0.9481038451194763,-0.7158663272857666
1772734444356279300,5.000279296875,-0.9720458984375,0.6607996821403503,-0.5746083855628967
1772734444364631000,5.008631103515625,-1.0319008827209473,0.5123591423034668,-0.8140285611152649
1772734444374955300,5.018955322265625,-0.7924807667732239,0.21308395266532898,-0.8571242094039917
1772734444404640500,5.048640625,-0.0071826050989329815,-0.36152446269989014,-0.8164227604866028
1772734444414651600,5.058651611328125,0.3902548849582672,-0.2513911724090576,-0.8092401623725891
1772734444424643600,5.0686435546875,0.6057330369949341,-0.07900865375995636,-1.036689281463623
1772734444434667000,5.0786669921875,0.751779317855835,0.08140286058187485,-1.1851298809051514
1772734444444627700,5.088627685546875,0.6775590777397156,0.2585737705230713,-1.2952631711959839
1772734444454644500,5.09864453125,0.47165772318840027,0.2777273952960968,-0.9911994934082031
1772734444464636700,5.10863671875,0.272938996553421,0.3208230137825012,-0.7206547260284424
1772734444474978000,5.11897802734375,0.24181437492370605,0.3232172429561615,-0.3902548849582672
1772734444504727000,5.14872705078125,0.7781155705451965,0.6153098344802856,-0.29209262132644653
1772734444517286100,5.1612861328125,0.8331822156906128,0.36152446269989014,-0.40222588181495667
1772734444524833800,5.168833740234375,0.5219359993934631,0.2849099934101105,-0.4165911078453064
1772734444534883000,5.178883056640625,0.26575639843940735,0.3519476354122162,-0.2849099934101105
1772734444544908000,5.188907958984375,0.08619125932455063,0.40701428055763245,-0.15801730751991272
1772734444554978800,5.198978759765625,0.1149216815829277,0.6320692300796509,0.17956513166427612
1772734444564976400,5.208976318359375,0.011971008032560349,0.8092401623725891,0.28730419278144836
1772734444575342300,5.21934228515625,-0.06703764945268631,0.7015010714530945,0.1388636976480484
1772734444605131000,5.249131103515625,0.3758896589279175,-0.45010992884635925,-0.3208230137825012
1772734444615177200,5.25917724609375,0.2849099934101105,-0.07661445438861847,-0.2968810200691223
1772734444625201400,5.269201416015625,-0.6272808313369751,0.3016694188117981,-0.1604115068912506
1772734444635259600,5.279259765625,-0.6153098344802856,0.33518823981285095,-0.19153612852096558
1772734444645256700,5.289256591796875,-0.038307227194309235,0.3687070608139038,-0.4596867263317108
1772734444655910700,5.29991064453125,0.5339069962501526,0.272938996553421,-0.49320554733276367
1772734444665325600,5.30932568359375,1.0342950820922852,-0.2537853717803955,-0.3519476354122162
1772734444677290500,5.32129052734375,0.49559974670410156,-0.43335050344467163,-0.2561795711517334
1772734444716565200,5.360565185546875,0.35434186458587646,-0.10295066982507706,0.36152446269989014
1772734444726588400,5.37058837890625,-0.18914192914962769,0.31603461503982544,0.6105214357376099
1772734444736626400,5.38062646484375,-0.05985504388809204,0.4908113479614258,0.7110779285430908
1772734444746646000,5.39064599609375,-0.24660277366638184,0.9720458984375,0.7015010714530945
1772734444756714200,5.40071435546875,-0.24899697303771973,1.1563993692398071,0.8044517636299133
1772734444766730200,5.410730224609375,0.17717093229293823,0.7781155705451965,0.7709329724311829
1772734444777092900,5.4210927734375,1.1204863786697388,0.38067805767059326,0.5626373887062073
1772734444786805500,5.430805419921875,1.8100165128707886,0.26096799969673157,0.3495534360408783
1772734444806894300,5.450894287109375,1.5203180313110352,1.0103530883789062,0.17956513166427612
1772734444817576400,5.461576416015625,1.4700398445129395,1.6160861253738403,0.3687070608139038
1772734444826997500,5.47099755859375,1.1468225717544556,2.0901381969451904,0.5817909836769104
1772734444839560000,5.483559814453125,0.3758896589279175,2.7102363109588623,0.6344634294509888
1772734444848111400,5.492111328125,-0.9409212470054626,2.0614075660705566,0.629675030708313
1772734444858178300,5.50217822265625,-3.8546648025512695,-0.7134721279144287,0.6272808313369751
1772734444868191500,5.51219140625,-3.3494882583618164,-2.1978771686553955,0.20111294090747833
1772734444878557000,5.522556884765625,-0.20350714027881622,-3.4356794357299805,-0.5123591423034668
1772734444888286500,5.532286376953125,1.9584569931030273,-3.4787750244140625,-1.0223240852355957
1772734444898355500,5.54235546875,2.0231003761291504,-1.9105730056762695,-0.9265560507774353
1772734444918430700,5.5624306640625,0.8690952062606812,1.3551181554794312,-0.7493851184844971
1772734444928459000,5.572458984375,0.1843535304069519,1.9273324012756348,-0.26336219906806946
1772734444938538500,5.58253857421875,-0.0454898327589035,2.1308395862579346,0.031124621629714966
1772734444948551400,5.592551513671875,-0.45250412821769714,1.601720929145813,-0.026336219161748886
1772734444958610400,5.6026103515625,-0.8259995579719543,0.6200982332229614,-0.19393034279346466
1772734444968632600,5.612632568359375,-0.8978256583213806,-0.6392518281936646,-0.31603461503982544
1772734444979631400,5.62363134765625,-0.6033388376235962,-1.766920804977417,-0.8738836050033569
1772734444988729600,5.6327294921875,0.10534487664699554,-2.717418909072876,-1.070208191871643
1772734445008844000,5.652843994140625,0.8236053586006165,-1.2258312702178955,-0.706289529800415
1772734445018925800,5.66292578125,0.7852981686592102,-0.33518823981285095,-0.4596867263317108
1772734445028905000,5.672905029296875,0.9361328482627869,-0.3423708379268646,-0.44771572947502136
1772734445038923000,5.682923095703125,1.3551181554794312,-0.7757213711738586,-0.4812345504760742
1772734445048957700,5.692957763671875,0.9792284965515137,-0.9768342971801758,-0.395043283700943
1772734445059026700,5.703026611328125,0.5267243981361389,-0.7565677165985107,-0.15322890877723694
1772734445069033500,5.713033447265625,0.7374141216278076,-0.751779317855835,0.20350714027881622
1772734445079394800,5.723394775390625,0.6823474764823914,-0.8667010068893433,0.3758896589279175
1772734445089115000,5.733114990234375,0.3663128614425659,-1.039083480834961,0.2801215946674347
1772734445099187200,5.743187255859375,0.3758896589279175,-1.0031704902648926,0.4118026793003082
1772734445119258400,5.76325830078125,0.07661445438861847,-0.8738836050033569,0.2777273952960968
1772734445129316600,5.773316650390625,-0.05506663769483566,-0.9026140570640564,0.2059013396501541
1772734445139994400,5.783994384765625,-0.19871874153614044,-0.6607996821403503,0.17956513166427612
1772734445149385200,5.79338525390625,-0.17477671802043915,-0.35673606395721436,0.24181437492370605
1772734445161921000,5.805921142578125,-0.14604631066322327,-0.24420857429504395,0.31842881441116333
1772734445169491500,5.813491455078125,-0.090979665517807,-0.1388636976480484,0.24181437492370605
1772734445179871500,5.82387158203125,0.06224924325942993,0.035913024097681046,0.1843535304069519
1772734445189567700,5.833567626953125,0.3663128614425659,0.014365210197865963,0.05506663769483566
1772734445199625200,5.843625244140625,0.3663128614425659,-0.033518824726343155,-0.0454898327589035
1772734445219717600,5.863717529296875,0.08619125932455063,-0.07661445438861847,-0.17956513166427612
1772734445229729000,5.87372900390625,-0.07900865375995636,-0.16998831927776337,-0.22026655077934265
1772734445239787800,5.883787841796875,-0.10295066982507706,-0.21787235140800476,-0.3423708379268646
1772734445249814300,5.893814208984375,0.021547814831137657,-0.1412578970193863,-0.27054479718208313
1772734445259892500,5.903892578125,0.08858546614646912,0.11971008777618408,-0.13168109953403473
1772734445269899500,5.9138994140625,0.2346317619085312,0.24660277366638184,-0.0694318488240242
1772734445280263000,5.924262939453125,0.10773907601833344,0.4213795065879822,0.19871874153614044
1772734445289983000,5.93398291015625,0.21547815203666687,0.6703764796257019,0.15083470940589905
1772734445300660200,5.94466015625,0.11971008777618408,0.4908113479614258,0.2322375625371933
1772734445310049500,5.954049560546875,-0.08379705995321274,0.19871874153614044,0.14604631066322327
1772734445330145300,5.974145263671875,-0.1628057211637497,-0.181959331035614,0.10295066982507706
1772734445340213500,5.984213623046875,-0.09816227108240128,-0.12689268589019775,0.304063618183136
1772734445350210600,5.99421044921875,0.0933738648891449,-0.038307227194309235,0.2801215946674347
1772734445360257500,6.004257568359375,0.47644615173339844,-0.021547814831137657,0.2106897532939911
1772734445370289000,6.014288818359375,0.6440402865409851,-0.011971008032560349,0.21308395266532898
1772734445380668700,6.024668701171875,0.6823474764823914,-0.07182604819536209,0.15083470940589905
1772734445390355200,6.034355224609375,0.5219359993934631,-0.12449848651885986,0.07900865375995636
1772734445400404500,6.044404541015625,0.4118026793003082,-0.27054479718208313,0.040701430290937424
1772734445410427000,6.054427001953125,0.38546648621559143,-0.2537853717803955,0.1364694982767105
1772734445440551400,6.084551513671875,0.5267243981361389,-0.23702596127986908,0.21547815203666687
1772734445450572300,6.094572265625,0.5578489899635315,-0.21308395266532898,0.17717093229293823
1772734445461362400,6.105362548828125,0.5027823448181152,-0.15322890877723694,0.2346317619085312
1772734445470647600,6.1146474609375,0.4692635238170624,-0.2585737705230713,0.22266076505184174
1772734445483520300,6.127520263671875,0.31842881441116333,-0.33518823981285095,0.15083470940589905
1772734445491022300,6.135022216796875,0.2777273952960968,-0.33758243918418884,0.14844051003456116
1772734445500839700,6.144839599609375,0.14604631066322327,-0.3423708379268646,0.1628057211637497
1772734445510847500,6.154847412109375,0.031124621629714966,-0.26575639843940735,0.12689268589019775
1772734445540969500,6.184969482421875,0.06703764945268631,-0.09816227108240128,-0.004788403399288654
1772734445550953700,6.19495361328125,0.040701430290937424,0.0071826050989329815,-0.08619125932455063
1772734445560996000,6.20499609375,0.019153613597154617,0.009576806798577309,-0.18914192914962769
1772734445570996700,6.214996826171875,-0.05506663769483566,0.1364694982767105,-0.15801730751991272
1772734445581380000,6.225380126953125,-0.12210428714752197,0.24181437492370605,-0.1149216815829277
1772734445591065900,6.23506591796875,-0.21547815203666687,0.2849099934101105,0.05027823522686958
1772734445601104100,6.245104248046875,-0.23702596127986908,0.26815059781074524,0.15083470940589905
1772734445611121000,6.255120849609375,-0.33997663855552673,0.23702596127986908,0.026336219161748886
1772734445621799700,6.265799560546875,-0.2944868206977844,0.1628057211637497,-0.0454898327589035
1772734445642854100,6.286854248046875,0.011971008032560349,0.038307227194309235,-0.090979665517807
1772734445651268900,6.295268798828125,0.1364694982767105,0.016759412363171577,-0.15562310814857483
1772734445661355000,6.30535498046875,0.22505496442317963,-0.043095629662275314,-0.12210428714752197
1772734445671351300,6.315351318359375,0.11252748221158981,0.06224924325942993,0.028730420395731926
1772734445681710600,6.325710693359375,-0.014365210197865963,-0.009576806798577309,0.07900865375995636
1772734445691441200,6.335441162109375,0.0933738648891449,-0.18914192914962769,0.1364694982767105
1772734445701504300,6.345504150390625,0.27054479718208313,-0.35673606395721436,0.08379705995321274
1772734445711497200,6.355497314453125,0.2753331959247589,-0.2059013396501541,0.009576806798577309
1772734445721535200,6.36553515625,0.31364041566848755,-0.14365209639072418,-0.08379705995321274
1772734445751599900,6.395599853515625,0.40462008118629456,0.11971008777618408,0.11971008777618408
1772734445761642800,6.405642822265625,0.3447650372982025,0.038307227194309235,0.14604631066322327
1772734445771660500,6.41566064453125,0.27054479718208313,-0.1604115068912506,0.14844051003456116
1772734445782636500,6.426636474609375,0.002394201699644327,-0.2585737705230713,0.10773907601833344
1772734445791711000,6.4357109375,0.033518824726343155,-0.2801215946674347,0.19153612852096558
1772734445804255500,6.44825537109375,0.10773907601833344,-0.1867477297782898,0.09816227108240128
1772734445811778300,6.4557783203125,0.090979665517807,-0.23942017555236816,0.08858546614646912
1772734445821835500,6.46583544921875,0.1173158809542656,-0.12689268589019775,-0.08379705995321274
1772734445831814400,6.475814453125,0,-0.0694318488240242,-0.10534487664699554
1772734445861924400,6.50592431640625,-0.10295066982507706,-0.090979665517807,0.033518824726343155
1772734445871913200,6.515913330078125,0.038307227194309235,-0.021547814831137657,0.05985504388809204
1772734445882262000,6.526261962890625,0.033518824726343155,-0.05746084079146385,0.035913024097681046
1772734445891966700,6.535966796875,0.26096799969673157,0.002394201699644327,0.016759412363171577
1772734445902025700,6.546025634765625,0.19153612852096558,-0.016759412363171577,-0.035913024097681046
1772734445912018200,6.55601806640625,0.12449848651885986,-0.035913024097681046,-0.2346317619085312
1772734445922047500,6.566047607421875,0.035913024097681046,-0.18914192914962769,-0.22505496442317963
1772734445932076300,6.576076171875,0.16519992053508759,-0.31124621629714966,-0.3016694188117981
1772734445942732500,6.586732666015625,0.2322375625371933,-0.12689268589019775,-0.2298433631658554
1772734445952117000,6.596116943359375,0.22266076505184174,0.09576806426048279,-0.17956513166427612
1772734445963757800,6.6077578125,0.1604115068912506,0.20350714027881622,-0.06464344263076782
1772734445972204500,6.61620458984375,0.16998831927776337,0.31842881441116333,-0.021547814831137657
1772734445982570500,6.626570556640625,0.023942016065120697,0.26575639843940735,0.038307227194309235
1772734445992255500,6.63625537109375,-0.043095629662275314,0.1843535304069519,0.06703764945268631
1772734446002299400,6.64629931640625,-0.09816227108240128,-0.016759412363171577,0.1149216815829277
1772734446012306400,6.656306396484375,-0.07900865375995636,-0.15801730751991272,0.06224924325942993
1772734446022358500,6.666358642578125,-0.10773907601833344,-0.22266076505184174,-0.07900865375995636
1772734446032341500,6.676341552734375,0.031124621629714966,-0.40701428055763245,-0.07422025501728058
1772734446042382000,6.686382080078125,0.090979665517807,-0.33039984107017517,-0.2082955539226532
1772734446082790100,6.7267900390625,0.272938996553421,-0.14365209639072418,-0.15562310814857483
1772734446092640000,6.736639892578125,0.0933738648891449,-0.10055647045373917,0
1772734446103157000,6.747156982421875,0.14365209639072418,0.16759411990642548,0.05027823522686958
1772734446112545000,6.756544921875,0.21787235140800476,0.42377370595932007,0.038307227194309235
1772734446125079000,6.7690791015625,0.22266076505184174,0.43095630407333374,0.021547814831137657
1772734446132635000,6.776634765625,0.11971008777618408,0.3734954595565796,-0.043095629662275314
1772734446142712800,6.786712890625,-0.0071826050989329815,0.28730419278144836,0.09576806426048279
1772734446152708400,6.796708251953125,-0.17717093229293823,0.06703764945268631,0.2082955539226532
1772734446183151000,6.827151123046875,-0.42856210470199585,-0.15322890877723694,0.24181437492370605
1772734446192844500,6.836844482421875,-0.45489832758903503,-0.15083470940589905,0.12210428714752197
1772734446202892500,6.846892578125,-0.3280056416988373,-0.16998831927776337,-0.014365210197865963
1772734446212903200,6.856903076171875,-0.28969839215278625,-0.2346317619085312,-0.13168109953403473
1772734446222968800,6.86696875,-0.08858546614646912,-0.2777273952960968,-0.12210428714752197
1772734446232965400,6.87696533203125,0.009576806798577309,-0.12210428714752197,-0.20111294090747833
1772734446243015400,6.887015380859375,0.09816227108240128,-0.11013327538967133,-0.090979665517807
1772734446253049000,6.897049072265625,0.09816227108240128,0.047884032130241394,-0.07182604819536209
1772734446263724300,6.907724365234375,0.07182604819536209,0.06224924325942993,0.05985504388809204
1772734446285118200,6.9291181640625,0.22266076505184174,-0.12210428714752197,0.011971008032560349
1772734446293224400,6.937224365234375,0.29209262132644653,-0.15562310814857483,0.0071826050989329815
1772734446303293700,6.947293701171875,0.3902548849582672,-0.021547814831137657,-0.021547814831137657
1772734446313292500,6.95729248046875,0.5123591423034668,0.17477671802043915,-0.19632454216480255
1772734446323337000,6.9673369140625,0.6607996821403503,0.3878606855869293,-0.14604631066322327
1772734446333389000,6.97738916015625,0.7158663272857666,0.6440402865409851,-0.19153612852096558
1772734446343447000,6.987447021484375,0.4381389021873474,0.6607996821403503,-0.14844051003456116
1772734446353439700,6.997439697265625,0.29209262132644653,0.5363011956214905,-0.08140286058187485
1772734446363484200,7.007484130859375,0.19153612852096558,0.48602294921875,-0.08140286058187485
1772734446383900000,7.02789990234375,-0.05746084079146385,0.2849099934101105,-0.08379705995321274
1772734446393581000,7.0375810546875,-0.181959331035614,0.13168109953403473,-0.10055647045373917
1772734446403625500,7.04762548828125,-0.3232172429561615,0.10534487664699554,-0.043095629662275314
1772734446413634000,7.057634033203125,-0.272938996553421,-0.004788403399288654,-0.2561795711517334
1772734446424304600,7.0683046875,-0.3974374830722809,-0.021547814831137657,-0.304063618183136
1772734446433697800,7.07769775390625,-0.38546648621559143,-0.12210428714752197,-0.21787235140800476
1772734446446227700,7.090227783203125,-0.3064578175544739,-0.17717093229293823,-0.28969839215278625
1772734446453777700,7.097777587890625,-0.19393034279346466,-0.2585737705230713,-0.23702596127986908
1772734446463834600,7.107834716796875,-0.11013327538967133,-0.3878606855869293,-0.21308395266532898
1772734446484185000,7.12818505859375,0.07182604819536209,-0.667982280254364,-0.15801730751991272
1772734446493916700,7.137916748046875,0.05985504388809204,-0.5003881454467773,-0.12928688526153564
1772734446503968300,7.14796826171875,0.11971008777618408,-0.1364694982767105,-0.05985504388809204
1772734446513927700,7.157927734375,0.09816227108240128,0.08619125932455063,-0.035913024097681046
1772734446523961000,7.167961181640625,0.17477671802043915,0.21787235140800476,0.05746084079146385
1772734446533948000,7.177947998046875,0.33039984107017517,0.06464344263076782,0.06464344263076782
1772734446543972900,7.187972900390625,0.11971008777618408,0.0694318488240242,-0.031124621629714966
1772734446553926700,7.1979267578125,0.11013327538967133,0.08619125932455063,-0.06703764945268631
1772734446563927800,7.207927734375,0.12210428714752197,-0.08858546614646912,-0.2968810200691223
1772734446573916000,7.217916015625,0.15083470940589905,0.0071826050989329815,-0.3423708379268646
1772734446605520400,7.249520263671875,0.6440402865409851,0.29209262132644653,-0.5530605912208557
1772734446613931000,7.257930908203125,0.8212111592292786,0.2849099934101105,-0.667982280254364
1772734446623968000,7.267968017578125,0.8906430602073669,0.2777273952960968,-0.7805097699165344
1772734446633928000,7.277927978515625,0.8834604024887085,0.49320554733276367,-0.7134721279144287
1772734446643944200,7.287944091796875,0.8475474119186401,0.9002198576927185,-0.7015010714530945
1772734446653960400,7.29796044921875,1.01753568649292,1.290474772453308,-0.629675030708313
1772734446664025000,7.308025146484375,1.3479355573654175,1.3120225667953491,-0.5386953949928284
1772734446674020400,7.318020263671875,1.4437036514282227,1.0797849893569946,-0.6272808313369751
1772734446684377300,7.32837744140625,1.3862427473068237,0.790086567401886,-0.8379706144332886
1772734446704187400,7.3481875,0.9672574996948242,0.33758243918418884,-1.1300631761550903
1772734446714189600,7.358189453125,0.9145850539207458,0.08858546614646912,-1.036689281463623
1772734446724235300,7.3682353515625,0.7110779285430908,0.021547814831137657,-0.9864110946655273
1772734446734279400,7.378279541015625,0.7829039692878723,-0.021547814831137657,-0.8164227604866028
1772734446744954000,7.3889541015625,0.6655880808830261,-0.009576806798577309,-0.689530074596405
1772734446754339000,7.398339111328125,0.47405192255973816,-0.002394201699644327,-0.545877993106842
1772734446766882300,7.41088232421875,0.3687070608139038,-0.009576806798577309,-0.44532153010368347
1772734446774436400,7.418436279296875,0.3423708379268646,-0.06224924325942993,-0.2106897532939911
1772734446784810800,7.428810791015625,0.23702596127986908,-0.06224924325942993,-0.09576806426048279
1772734446794497800,7.438497802734375,0.15322890877723694,-0.181959331035614,0.014365210197865963
1772734446814557200,7.45855712890625,0.19871874153614044,-0.4572925269603729,0.019153613597154617
1772734446824622800,7.468622802734375,0.2513911724090576,-0.5793967843055725,-0.040701430290937424
1772734446834619600,7.47861962890625,0.24420857429504395,-0.507570743560791,-0.07422025501728058
1772734446844665000,7.4886650390625,0.3232172429561615,-0.2992752194404602,0.11971008777618408
1772734446854684400,7.498684326171875,0.2513911724090576,-0.19153612852096558,0.44771572947502136
1772734446864746500,7.50874658203125,0.26815059781074524,0.07182604819536209,0.9385270476341248
1772734446874744300,7.518744384765625,0.2825157940387726,-0.011971008032560349,1.3431471586227417
1772734446885102000,7.52910205078125,0.05267243832349777,-0.07900865375995636,1.5083470344543457
1772734446894899200,7.538899169921875,-0.031124621629714966,-0.26096799969673157,1.647210717201233
1772734446905493000,7.549492919921875,-0.26336219906806946,-0.21308395266532898,1.5969325304031372
1772734446926575900,7.570575927734375,-0.5961562395095825,-0.24899697303771973,1.824381709098816
1772734446934984400,7.578984375,-0.8619126081466675,-0.20350714027881622,1.9129672050476074
1772734446945046500,7.589046630859375,-1.0821791887283325,-0.22744916379451752,1.965639591217041
1772734446955039000,7.5990390625,-1.1468225717544556,-0.1412578970193863,1.9728221893310547
1772734446965080300,7.609080322265625,-1.216254472732544,-0.20350714027881622,1.8411411046981812
1772734446975109600,7.619109619140625,-1.2880805730819702,-0.1412578970193863,1.9512743949890137
1772734446985476400,7.629476318359375,-1.4460978507995605,-0.15562310814857483,1.6759412288665771
1772734446995153200,7.639153076171875,-1.482010841369629,-0.1628057211637497,1.7286136150360107
1772734447005199000,7.64919921875,-1.7262194156646729,-0.11971008777618408,1.644816517829895
1772734447035274800,7.679274658203125,-1.702277421951294,-0.033518824726343155,2.056619167327881
1772734447045315600,7.689315673828125,-1.7884687185287476,0.090979665517807,2.0398597717285156
1772734447055350500,7.6993505859375,-1.8579005002975464,0.13168109953403473,2.145204782485962
1772734447066018600,7.7100185546875,-1.7310078144073486,0.09816227108240128,2.248155355453491
1772734447075402000,7.719402099609375,-1.5418659448623657,0.07182604819536209,2.3918075561523438
1772734447088248300,7.732248291015625,-1.2330138683319092,0.019153613597154617,2.343923568725586
1772734447095715300,7.73971533203125,-0.9720458984375,-0.07422025501728058,2.456450939178467
1772734447105522700,7.749522705078125,-0.8212111592292786,0,2.4612393379211426
1772734447115510300,7.75951025390625,-0.44771572947502136,0,2.4588451385498047
1772734447135593500,7.779593505859375,0.016759412363171577,-0.08858546614646912,2.140416383743286
1772734447145654500,7.789654541015625,0.35913026332855225,0.004788403399288654,1.9967641830444336
1772734447155657700,7.79965771484375,0.5889736413955688,-0.014365210197865963,1.8626888990402222
1772734447165698300,7.8096982421875,0.689530074596405,-0.038307227194309235,1.4652514457702637
1772734447175710500,7.81971044921875,0.6440402865409851,-0.10295066982507706,1.1827356815338135
1772734447186085600,7.830085693359375,0.6200982332229614,-0.023942016065120697,0.7709329724311829
1772734447195772000,7.83977197265625,0.5985504388809204,0.035913024097681046,0.6727706789970398
1772734447205803300,7.84980322265625,0.4884171485900879,0.0071826050989329815,0.24660277366638184
1772734447215786200,7.8597861328125,0.4884171485900879,-0.2968810200691223,0.20111294090747833
1772734447235774200,7.879774169921875,0.5817909836769104,-0.7182605266571045,-0.05027823522686958
1772734447247402500,7.891402587890625,0.3758896589279175,-0.8690952062606812,-0.35434186458587646
1772734447255813400,7.8998134765625,0.2537853717803955,-0.9169792532920837,-0.5051765441894531
1772734447265841200,7.909841064453125,0.23702596127986908,-0.7158663272857666,-0.7541735172271729
1772734447275807500,7.919807373046875,0.2968810200691223,-0.6871358752250671,-0.9433154463768005
1772734447286131500,7.93013134765625,0.12928688526153564,-0.5434837937355042,-1.0630255937576294
1772734447295835000,7.9398349609375,-0.0071826050989329815,-0.37828385829925537,-1.1779472827911377
1772734447305865200,7.949865234375,-0.16998831927776337,-0.20111294090747833,-1.1204863786697388
1772734447315830300,7.959830322265625,-0.3208230137825012,-0.09816227108240128,-1.194706678390503
1772734447325842200,7.96984228515625,-0.33758243918418884,-0.0933738648891449,-1.0199298858642578
1772734447345885000,7.989885009765625,-0.17238251864910126,0.09816227108240128,-0.9744400978088379
1772734447355854600,7.9998544921875,-0.26575639843940735,0.2944868206977844,-0.9433154463768005
1772734447365869300,8.009869384765626,-0.42377370595932007,0.1388636976480484,-0.9169792532920837
1772734447375859200,8.019859130859375,-0.24660277366638184,0.18914192914962769,-0.9696516990661621
1772734447386807800,8.030807861328125,-0.15801730751991272,0.05985504388809204,-0.7852981686592102
1772734447395868200,8.0398681640625,0.035913024097681046,0.043095629662275314,-0.828393816947937
1772734447408365300,8.052365234375,-0.2849099934101105,0.05506663769483566,-0.6775590777397156
1772734447415886600,8.059886474609375,-0.6799532771110535,0.10295066982507706,-0.629675030708313
1772734447425911000,8.0699111328125,-0.7972691655158997,0.17956513166427612,-0.5315127968788147
1772734447435873300,8.079873291015625,-0.6344634294509888,0.05746084079146385,-0.47165772318840027
1772734447455979800,8.099979736328125,-0.0454898327589035,-0.2322375625371933,-0.5291185975074768
1772734447475899000,8.11989892578125,-0.2801215946674347,0.1364694982767105,-0.9217676520347595
1772734447486229500,8.1302294921875,-0.4884171485900879,0.28730419278144836,-0.8954314589500427
1772734447495925800,8.13992578125,-0.47644615173339844,0.07422025501728058,-0.8427590131759644
1772734447505972700,8.14997265625,-0.4405331015586853,-0.07661445438861847,-0.9002198576927185
1772734447515948300,8.1599482421875,-0.2106897532939911,-0.43095630407333374,-1.0271124839782715
1772734447525966300,8.16996630859375,-0.22744916379451752,-0.5506663918495178,-1.113303780555725
1772734447535997400,8.17999755859375,-0.31364041566848755,-0.6536170840263367,-1.2713210582733154
1772734447546639600,8.1906396484375,-0.38546648621559143,-0.5841852426528931,-1.1468225717544556
1772734447567646700,8.211646728515625,-0.17477671802043915,-0.6871358752250671,-1.2306196689605713
1772734447576036600,8.22003662109375,0,-0.6703764796257019,-1.338358759880066
1772734447586407000,8.230406982421876,-0.090979665517807,-0.5626373887062073,-1.3120225667953491
1772734447596077300,8.240077392578126,-0.24181437492370605,-0.6344634294509888,-1.3503297567367554
1772734447606107100,8.250107177734375,-0.1149216815829277,-0.7158663272857666,-1.213860273361206
1772734447616096300,8.26009619140625,-0.016759412363171577,-0.629675030708313,-1.1180921792984009
1772734447626134500,8.270134521484374,0.026336219161748886,-0.47884035110473633,-0.9888052940368652
1772734447636104000,8.28010400390625,0.22505496442317963,-0.40462008118629456,-0.8690952062606812
1772734447646191400,8.29019140625,0.08379705995321274,-0.507570743560791,-0.7134721279144287
1772734447666151000,8.31015087890625,0.33039984107017517,-0.5913678407669067,-0.5267243981361389
1772734447676144400,8.320144287109375,0.38546648621559143,-0.5961562395095825,-0.6320692300796509
1772734447686517800,8.330517822265625,0.35434186458587646,-0.5985504388809204,-0.4812345504760742
1772734447696215000,8.340215087890625,0.47644615173339844,-0.5602431893348694,-0.47644615173339844
1772734447706846200,8.35084619140625,0.6919242739677429,-0.38546648621559143,-0.38546648621559143
1772734447716236500,8.360236572265626,0.8259995579719543,-0.3495534360408783,-0.3878606855869293
1772734447728769800,8.372769775390625,0.9169792532920837,-0.272938996553421,-0.5051765441894531
1772734447736303900,8.380303955078125,0.8906430602073669,-0.33997663855552673,-0.4668693244457245
1772734447746335500,8.39033544921875,1.039083480834961,-0.3016694188117981,-0.3734954595565796
1772734447756332300,8.400332275390625,0.8882488012313843,-0.4118026793003082,-0.2825157940387726
1772734447766386400,8.410386474609375,0.5793967843055725,-0.33997663855552673,-0.18914192914962769
1772734447776385000,8.420385009765624,0.40940847992897034,-0.5267243981361389,0.031124621629714966
1772734447786723800,8.430723876953126,0.38307225704193115,-0.5793967843055725,0.11252748221158981
1772734447796404500,8.440404541015624,0.15562310814857483,-0.7134721279144287,0.15083470940589905
1772734447806460700,8.450460693359375,0.090979665517807,-0.8331822156906128,0.1867477297782898
1772734447816444200,8.460444091796875,0.2801215946674347,-0.8331822156906128,0.2849099934101105
1772734447826484000,8.47048388671875,0.40222588181495667,-0.6057330369949341,0.33758243918418884
1772734447836467700,8.4804677734375,0.5985504388809204,-0.646434485912323,0.3495534360408783
1772734447846520300,8.490520263671876,0.6153098344802856,-0.4836287498474121,0.2992752194404602
1772734447876534500,8.520534423828124,0.38307225704193115,-0.33039984107017517,0.42377370595932007
1772734447888494300,8.532494384765625,0.2585737705230713,-0.3495534360408783,0.4572925269603729
1772734447896619800,8.540619873046875,0.21547815203666687,-0.3495534360408783,0.5219359993934631
1772734447906669000,8.5506689453125,0.16519992053508759,-0.5099649429321289,0.40462008118629456
1772734447916688400,8.5606884765625,0.2992752194404602,-0.5913678407669067,0.40940847992897034
1772734447926771000,8.57077099609375,0.16998831927776337,-0.43335050344467163,0.44771572947502136
1772734447936803800,8.580803955078125,0.1867477297782898,-0.33997663855552673,0.507570743560791
1772734447946851000,8.59085107421875,0.07661445438861847,-0.31842881441116333,0.4213795065879822
1772734447956869600,8.60086962890625,0.07182604819536209,-0.17477671802043915,0.5219359993934631
1772734447987299600,8.631299560546875,0.004788403399288654,-0.33997663855552673,0.36152446269989014
1772734447997003500,8.64100341796875,0.06703764945268631,-0.4836287498474121,0.35913026332855225
1772734448007070200,8.6510703125,0.19632454216480255,-0.4908113479614258,0.35913026332855225
1772734448017070000,8.661070068359376,0.11971008777618408,-0.4141969084739685,0.3232172429561615
1772734448027724300,8.671724365234375,0.05267243832349777,-0.2992752194404602,0.31842881441116333
1772734448037133300,8.68113330078125,0.06464344263076782,-0.27054479718208313,0.2968810200691223
1772734448049681000,8.693680908203126,0.20350714027881622,-0.2346317619085312,0.3208230137825012
1772734448057217500,8.701217529296875,0.24899697303771973,-0.2777273952960968,0.3280056416988373
1772734448087672800,8.7316728515625,-0.047884032130241394,-0.22505496442317963,0.24899697303771973
1772734448097364500,8.741364501953125,-0.05746084079146385,-0.4405331015586853,0.12928688526153564
1772734448107420200,8.751420166015626,0.040701430290937424,-0.4429273009300232,0.16998831927776337
1772734448117443000,8.761443115234375,-0.08379705995321274,-0.4381389021873474,0.2346317619085312
1772734448127502300,8.77150244140625,-0.011971008032560349,-0.3064578175544739,0.17717093229293823
1772734448137480000,8.78147998046875,0.0933738648891449,-0.09576806426048279,0.0694318488240242
1772734448147526100,8.791526123046875,0.08140286058187485,0.1604115068912506,-0.031124621629714966
1772734448157517300,8.801517333984375,0.24899697303771973,0.2777273952960968,-0.21787235140800476
1772734448167565000,8.81156494140625,0.07422025501728058,0.33279404044151306,-0.33997663855552673
1772734448197554700,8.8415546875,-0.181959331035614,0.05746084079146385,-0.4644751250743866
1772734448209240800,8.85324072265625,-0.24420857429504395,0.05506663769483566,-0.6129156351089478
1772734448217594400,8.861594482421875,-0.28969839215278625,-0.026336219161748886,-0.667982280254364
1772734448227609900,8.87160986328125,-0.11013327538967133,-0.038307227194309235,-0.6320692300796509
1772734448237593900,8.88159375,0.05027823522686958,-0.17956513166427612,-0.6703764796257019
1772734448247642400,8.891642333984375,0.15562310814857483,-0.1843535304069519,-0.5554547905921936
1772734448257619500,8.901619384765626,0.09576806426048279,-0.4381389021873474,-0.5841852426528931
1772734448267628500,8.911628662109376,0.16759411990642548,-0.5746083855628967,-0.5363011956214905
1772734448297635600,8.941635498046875,-0.22026655077934265,-0.4357447028160095,-0.2801215946674347
1772734448307667700,8.951667724609376,-0.3758896589279175,-0.3495534360408783,-0.14365209639072418
1772734448317650400,8.961650390625,-0.2849099934101105,-0.45010992884635925,0.033518824726343155
1772734448327679700,8.9716796875,-0.40940847992897034,-0.6129156351089478,0.023942016065120697
1772734448337687300,8.981687255859375,-0.35913026332855225,-0.8643068075180054,0.035913024097681046
1772734448348343300,8.99234326171875,-0.2585737705230713,-1.048660397529602,0.033518824726343155
1772734448357749200,9.001749267578125,-0.181959331035614,-1.0893617868423462,0.023942016065120697
1772734448370300000,9.0142998046875,-0.1867477297782898,-0.8307880163192749,-0.011971008032560349
1772734448397890800,9.041890869140625,0.05027823522686958,-0.3998316824436188,0.10534487664699554
1772734448407954200,9.0519541015625,0.15322890877723694,-0.2082955539226532,0.047884032130241394
1772734448417964000,9.061964111328125,-0.19393034279346466,-0.019153613597154617,0.12689268589019775
1772734448428010800,9.0720107421875,-0.40701428055763245,0.05746084079146385,0.17477671802043915
1772734448438023700,9.082023681640624,-0.5530605912208557,0.05506663769483566,0.17956513166427612
1772734448448090600,9.092090576171875,-0.44771572947502136,-0.07182604819536209,0.2513911724090576
1772734448458100200,9.102100341796875,-0.2082955539226532,-0.2968810200691223,0.304063618183136
1772734448468153300,9.1121533203125,-0.1628057211637497,-0.33997663855552673,0.31364041566848755
1772734448478176300,9.12217626953125,-0.08140286058187485,-0.40701428055763245,0.2537853717803955
1772734448488575500,9.132575439453126,-0.24420857429504395,-0.5363011956214905,0.2298433631658554
1772734448498295600,9.142295654296875,-0.2082955539226532,-0.3758896589279175,0.2753331959247589
1772734448518408200,9.162408203125,0.08858546614646912,-0.19871874153614044,0.3711012601852417
1772734448530095600,9.174095703125,0.10295066982507706,-0.1843535304069519,0.3758896589279175
1772734448538551000,9.182551025390625,-0.05267243832349777,-0.3280056416988373,0.2585737705230713
1772734448548607200,9.192607177734375,-0.12689268589019775,-0.5147533416748047,0.2298433631658554
1772734448558648300,9.2026484375,0.272938996553421,-0.4141969084739685,0.42377370595932007
1772734448568742400,9.212742431640624,-0.12928688526153564,-0.16998831927776337,0.35913026332855225
1772734448578754600,9.222754638671875,0.13407529890537262,-0.1388636976480484,0.35913026332855225
1772734448598808000,9.24280810546875,0.36152446269989014,-0.3711012601852417,0.17477671802043915
1772734448608878800,9.25287890625,0.2849099934101105,-0.47884035110473633,0.1173158809542656
1772734448618866000,9.262865966796875,0.4141969084739685,-0.5171475410461426,0.2777273952960968
1772734448628898300,9.272898193359374,0.304063618183136,-0.3663128614425659,0.31842881441116333
1772734448638897400,9.2828974609375,0.12689268589019775,-0.3232172429561615,0.33997663855552673
1772734448648972800,9.292972900390625,-0.05985504388809204,-0.2561795711517334,0.26336219906806946
1772734448658968800,9.30296875,-0.17956513166427612,-0.2992752194404602,0.14604631066322327
1772734448669609200,9.313609130859374,0,0.040701430290937424,0.05506663769483566
1772734448678997000,9.3229970703125,0.21547815203666687,0.12689268589019775,0.26575639843940735
1772734448691849700,9.335849609375,-0.3232172429561615,0.17238251864910126,0.181959331035614
1772734448721164800,9.365164794921874,0.17238251864910126,0.08140286058187485,0.09816227108240128
1772734448731246600,9.37524658203125,0.2944868206977844,-0.11971008777618408,0.10055647045373917
1772734448741279700,9.38527978515625,0.45489832758903503,-0.08379705995321274,0.181959331035614
1772734448751342300,9.39534228515625,0.23702596127986908,0.2825157940387726,0.10295066982507706
1772734448761479200,9.405479248046875,0.1388636976480484,0.3878606855869293,0.035913024097681046
1772734448771433200,9.41543310546875,-0.011971008032560349,0.4692635238170624,-0.011971008032560349
1772734448781453800,9.425453857421875,0.05027823522686958,0.5171475410461426,-0.05506663769483566
1772734448791822300,9.435822265625,0.05027823522686958,0.6153098344802856,-0.12689268589019775
1772734448801532000,9.445531982421874,-0.026336219161748886,0.6871358752250671,-0.22505496442317963
1772734448821627400,9.46562744140625,-0.21547815203666687,0.5626373887062073,-0.28969839215278625
1772734448832301800,9.4763017578125,-0.17717093229293823,0.2801215946674347,-0.2801215946674347
1772734448841710300,9.48571044921875,0.19632454216480255,0.26815059781074524,-0.26336219906806946
1772734448853438500,9.4974384765625,0.5027823448181152,0.7110779285430908,-0.3423708379268646
1772734448861833200,9.505833251953124,0.24899697303771973,1.039083480834961,-0.5554547905921936
1772734448871894500,9.51589453125,-0.9289502501487732,1.6855180263519287,-0.5315127968788147
1772734448881923600,9.525923583984374,0,1.316810965538025,-0.5506663918495178
1772734448892321300,9.5363212890625,0.9265560507774353,0.2082955539226532,-0.7350199222564697
1772734448902026000,9.54602587890625,0.9361328482627869,-0.3663128614425659,-1.0989385843276978
1772734448922135000,9.566135009765626,-0.08858546614646912,-0.20350714027881622,-0.9433154463768005
1772734448932228900,9.576228759765625,-0.36152446269989014,-0.2753331959247589,-0.4644751250743866
1772734448942260700,9.5862607421875,-0.2753331959247589,-0.21787235140800476,-0.1388636976480484
1772734448952333800,9.596333740234375,0.028730420395731926,0.06464344263076782,0.10773907601833344
1772734448962347300,9.60634716796875,-0.08619125932455063,0.3447650372982025,0.090979665517807
1772734448972398300,9.6163984375,-0.2753331959247589,0.5817909836769104,-0.14844051003456116
1772734448982389200,9.62638916015625,-0.014365210197865963,0.45250412821769714,-0.13168109953403473
1772734448993339600,9.637339599609374,-0.3734954595565796,-0.05027823522686958,-0.2537853717803955
1772734449002443000,9.646443115234375,-0.05267243832349777,-0.2968810200691223,-0.05267243832349777
1772734449014972400,9.658972412109375,0.19393034279346466,-0.5482721924781799,0.10773907601833344
1772734449032536800,9.676536865234375,0.14844051003456116,-0.48602294921875,0.15801730751991272
1772734449042537500,9.686537353515625,0.10534487664699554,-0.3902548849582672,0.1388636976480484
1772734449052587300,9.696587158203124,0.10055647045373917,-0.2753331959247589,0.19393034279346466
1772734449062569000,9.70656884765625,0.20111294090747833,-0.11013327538967133,0.1867477297782898
1772734449072600000,9.71660009765625,0.3447650372982025,-0.026336219161748886,0.1388636976480484
1772734449082610400,9.7266103515625,0.26575639843940735,-0.028730420395731926,0.1149216815829277
1772734449092969700,9.7369697265625,0.06464344263076782,-0.10773907601833344,-0.033518824726343155
1772734449102642700,9.746642578125,-0.043095629662275314,-0.17238251864910126,-0.1412578970193863
1772734449112669700,9.756669677734376,0.038307227194309235,-0.22026655077934265,0.05267243832349777
1772734449122670000,9.766670166015626,-0.17238251864910126,-0.3663128614425659,0.19393034279346466
1772734449142734300,9.786734375,-0.047884032130241394,-0.5674257874488831,0.24420857429504395
1772734449153375000,9.797375,0,-0.3926490843296051,0.13168109953403473
1772734449162778400,9.8067783203125,-0.035913024097681046,-0.3280056416988373,-0.028730420395731926
1772734449174417000,9.8184169921875,0.11013327538967133,-0.2298433631658554,-0.035913024097681046
1772734449193195000,9.837195068359375,0.4381389021873474,-0.19871874153614044,-0.12928688526153564
1772734449202886400,9.846886474609375,0.4836287498474121,-0.20111294090747833,-0.22744916379451752
1772734449212938000,9.85693798828125,0.304063618183136,-0.1867477297782898,-0.2322375625371933
1772734449222921500,9.86692138671875,0.2322375625371933,-0.004788403399288654,-0.24899697303771973
1772734449242956800,9.886956787109375,-0.15083470940589905,0.07900865375995636,0.12928688526153564
1772734449253011200,9.89701123046875,-0.3519476354122162,-0.10773907601833344,0.2585737705230713
1772734449262997000,9.9069970703125,-0.2082955539226532,-0.14844051003456116,0.33758243918418884
1772734449273039000,9.9170390625,0.033518824726343155,0.07900865375995636,0.35434186458587646
1772734449283042600,9.92704248046875,0.08379705995321274,0.18914192914962769,0.28969839215278625
1772734449293405400,9.937405517578124,0.05506663769483566,0.35673606395721436,0.304063618183136
1772734449303084000,9.947083984375,0.13407529890537262,0.49799394607543945,0.4596867263317108
1772734449313720600,9.957720458984374,0.14604631066322327,0.524330198764801,0.5291185975074768
1772734449323122400,9.967122314453125,0.13168109953403473,0.6057330369949341,0.6368576288223267
1772734449335687200,9.979687255859375,0.10055647045373917,0.5889736413955688,0.545877993106842
1772734449353325800,9.997325927734375,-0.11252748221158981,0.3495534360408783,0.33997663855552673
1772734449363364600,10.007364501953125,-0.2106897532939911,0.6057330369949341,0.4812345504760742
1772734449373445400,10.0174453125,-0.22266076505184174,0.5913678407669067,0.5530605912208557
1772734449383460600,10.027460693359375,-0.1149216815829277,0.6727706789970398,0.6153098344802856
1772734449393780700,10.03778076171875,-0.11013327538967133,0.5722141861915588,0.6248866319656372
1772734449403469000,10.047468994140624,-0.1843535304069519,0.43335050344467163,0.6344634294509888
1772734449413518300,10.057518310546875,-0.5123591423034668,0.3711012601852417,0.6033388376235962
1772734449423513900,10.067513916015624,-0.6009446382522583,0.3926490843296051,0.6177040338516235
1772734449433538000,10.0775380859375,-0.44771572947502136,0.33997663855552673,0.7015010714530945
1772734449443540700,10.087540771484376,-0.18914192914962769,0.3256114423274994,0.6991068720817566
1772734449463569000,10.10756884765625,-0.22505496442317963,0.2777273952960968,0.4620809257030487
1772734449474209000,10.118208984375,-0.07182604819536209,0.13407529890537262,0.35913026332855225
1772734449483617000,10.127616943359374,-0.07182604819536209,0.009576806798577309,0.22266076505184174
1772734449495621600,10.13962158203125,-0.0454898327589035,-0.0071826050989329815,0.2082955539226532
1772734449503682800,10.147682861328125,-0.021547814831137657,0.023942016065120697,0.07422025501728058
1772734449513726500,10.1577265625,-0.016759412363171577,0.07182604819536209,-0.040701430290937424
1772734449523726600,10.1677265625,0.05267243832349777,0.2059013396501541,-0.06703764945268631
1772734449533768400,10.1777685546875,0.21787235140800476,0.14844051003456116,-0.05267243832349777
1772734449543777000,10.187777099609375,0.07422025501728058,0.10055647045373917,-0.021547814831137657
1772734449563811800,10.207811767578125,0.22744916379451752,0.023942016065120697,0
1772734449573858800,10.21785888671875,0.21308395266532898,0.031124621629714966,-0.05985504388809204
1772734449583837400,10.22783740234375,0.17956513166427612,0.05985504388809204,-0.11252748221158981
1772734449594192000,10.23819189453125,0.2082955539226532,-0.002394201699644327,-0.2298433631658554
1772734449603880200,10.247880126953126,0.16998831927776337,-0.05985504388809204,-0.18914192914962769
1772734449613927200,10.25792724609375,0.19393034279346466,0.019153613597154617,-0.12689268589019775
1772734449623919900,10.267919921875,0.5027823448181152,0.009576806798577309,-0.15322890877723694
1772734449634554000,10.27855419921875,0.5578489899635315,0.08858546614646912,-0.26336219906806946
1772734449643952400,10.287952392578125,0.7996633648872375,0.16519992053508759,-0.42377370595932007
1772734449656486700,10.300486572265624,0.9624691009521484,0.14365209639072418,-0.5889736413955688
1772734449674036200,10.3180361328125,1.2880805730819702,-0.009576806798577309,-0.8619126081466675
1772734449684047000,10.328047119140624,1.2713210582733154,-0.0071826050989329815,-1.0558429956436157
1772734449694398500,10.3383984375,1.2976573705673218,0.0454898327589035,-1.1061211824417114
1772734449704089300,10.34808935546875,1.3263877630233765,0.3663128614425659,-1.113303780555725
1772734449714111500,10.358111572265624,1.3215993642807007,0.4357447028160095,-1.2042834758758545
1772734449724119800,10.368119873046876,1.259350061416626,0.5961562395095825,-1.1180921792984009
1772734449734168000,10.37816796875,1.1276689767837524,0.7254431247711182,-1.048660397529602
1772734449744147700,10.388147705078126,1.0223240852355957,0.828393816947937,-0.9265560507774353
1772734449754256100,10.398256103515624,1.0055646896362305,0.6057330369949341,-0.8451532125473022
1772734449764205800,10.408205810546875,0.8738836050033569,0.5722141861915588,-0.7158663272857666
1772734449784249000,10.4282490234375,0.7326257228851318,0.35673606395721436,-0.7493851184844971
1772734449795201000,10.439200927734374,0.5434837937355042,0.23702596127986908,-0.7733271718025208
1772734449804310500,10.448310546875,0.1388636976480484,-0.014365210197865963,-0.727837324142456
1772734449815948300,10.4599482421875,-0.1173158809542656,-0.1628057211637497,-0.6871358752250671
1772734449824364300,10.4683642578125,-0.3256114423274994,-0.2298433631658554,-0.6368576288223267
1772734449834393000,10.47839306640625,-0.3663128614425659,-0.2944868206977844,-0.5219359993934631
1772734449844387800,10.488387939453125,-0.33758243918418884,-0.15322890877723694,-0.4908113479614258
1772734449854443300,10.498443359375,-0.28969839215278625,-0.05027823522686958,-0.21787235140800476
1772734449864429800,10.508429931640626,-0.14365209639072418,0.1867477297782898,-0.15562310814857483
1772734449884464000,10.528464111328125,-0.2585737705230713,0.3519476354122162,0.2777273952960968
1772734449894814200,10.538814208984375,-0.6440402865409851,0.15562310814857483,0.40462008118629456
1772734449904489200,10.5484892578125,-0.8954314589500427,0.05746084079146385,0.363918662071228
1772734449914508500,10.558508544921875,-1.1037269830703735,-0.12210428714752197,0.5482721924781799
1772734449924510200,10.56851025390625,-1.3263877630233765,-0.22026655077934265,0.5363011956214905
1772734449934546200,10.578546142578125,-1.290474772453308,-0.31124621629714966,0.5267243981361389
1772734449944545800,10.5885458984375,-1.0247182846069336,-0.16759411990642548,0.3926490843296051
1772734449955178800,10.5991787109375,-0.5722141861915588,0.0454898327589035,0.3423708379268646
1772734449964566500,10.60856640625,-0.08858546614646912,0.23942017555236816,0.23942017555236816
1772734449994932700,10.6389326171875,0.35673606395721436,0.47644615173339844,-0.035913024097681046
1772734450004639000,10.648638916015624,0.12928688526153564,0.3711012601852417,-0.10055647045373917
1772734450014717000,10.658717041015626,-0.15322890877723694,0.35673606395721436,0.06464344263076782
1772734450024732700,10.668732666015625,-0.6799532771110535,0.7015010714530945,0.27054479718208313
1772734450034801000,10.67880078125,-0.828393816947937,1.0319008827209473,0.38546648621559143
1772734450044821800,10.68882177734375,-0.7110779285430908,1.2856862545013428,0.6727706789970398
1772734450054865200,10.698865234375,-0.4381389021873474,1.3215993642807007,0.689530074596405
1772734450064842500,10.708842529296875,-0.07422025501728058,1.2473790645599365,0.629675030708313
1772734450074870300,10.718870361328126,0.05985504388809204,1.1180921792984009,0.4572925269603729
1772734450104924200,10.748924072265625,-0.033518824726343155,0.3926490843296051,-0.1604115068912506
1772734450115574000,10.759573974609374,-0.07900865375995636,0.26096799969673157,-0.1364694982767105
1772734450124971500,10.768971435546876,-0.07422025501728058,0.33997663855552673,-0.035913024097681046
1772734450136669700,10.780669677734375,-0.16759411990642548,0.49320554733276367,0
1772734450145039400,10.789039306640625,-0.028730420395731926,0.6272808313369751,0.002394201699644327
1772734450155079400,10.799079345703126,-0.19632454216480255,0.586579442024231,-0.19393034279346466
1772734450165083400,10.80908349609375,-0.3208230137825012,0.6847416758537292,-0.2777273952960968
1772734450175137300,10.81913720703125,-0.4692635238170624,0.7254431247711182,-0.4572925269603729
1772734450205190400,10.8491904296875,-0.5506663918495178,0.6607996821403503,0.06464344263076782
1772734450215242200,10.8592421875,-0.6057330369949341,0.5051765441894531,0.35673606395721436
1772734450225218600,10.869218505859376,-0.751779317855835,0.5841852426528931,0.5530605912208557
1772734450235287300,10.879287353515625,-0.9026140570640564,0.586579442024231,0.6320692300796509
1772734450245246500,10.88924658203125,-0.8810662031173706,0.667982280254364,0.6416460275650024
1772734450255266800,10.899266845703124,-0.9983820915222168,0.6320692300796509,0.47405192255973816
1772734450265300200,10.90930029296875,-1.0773907899856567,0.6200982332229614,0.2777273952960968
1772734450275912200,10.919912109375,-1.091755986213684,0.6416460275650024,-0.05985504388809204
1772734450305609200,10.949609130859375,-1.7717092037200928,1.1300631761550903,0.1843535304069519
1772734450315429400,10.959429443359374,-1.944091796875,1.1516109704971313,0.40940847992897034
1772734450325437400,10.9694375,-2.008735179901123,1.1037269830703735,0.8188169598579407
1772734450335490600,10.979490478515626,-2.252943754196167,1.0893617868423462,1.139639973640442
1772734450345551400,10.98955126953125,-2.4588451385498047,0.8882488012313843,1.45806884765625
1772734450355620400,10.999620361328125,-2.4851813316345215,0.9026140570640564,1.4772224426269531
1772734450365627600,11.009627685546874,-2.4133553504943848,0.629675030708313,1.53707754611969
1772734450375684400,11.019684326171875,-2.3918075561523438,0.6607996821403503,1.3000515699386597
1772734450385702700,11.02970263671875,-2.4803929328918457,0.40940847992897034,1.1252747774124146
1772734450415839500,11.059839599609376,-2.9688100814819336,0.871489405632019,1.1875240802764893
1772734450425857000,11.06985693359375,-2.7988216876983643,0.6248866319656372,1.6400281190872192
1772734450436550400,11.08055029296875,-2.3918075561523438,0.5961562395095825,1.8914192914962769
1772734450445949400,11.089949462890624,-2.185906171798706,0.22026655077934265,2.3127987384796143
1772734450457610000,11.10160986328125,-2.121262788772583,0.33997663855552673,2.1715409755706787
1772734450466061800,11.110061767578125,-2.0685901641845703,-0.09816227108240128,2.319981336593628
1772734450476170000,11.120169921875,-2.0398597717285156,-0.028730420395731926,2.3032219409942627
1772734450486187500,11.1301875,-2.0207061767578125,-0.19632454216480255,2.4229321479797363
1772734450496573400,11.140573486328124,-1.9823989868164062,0.14604631066322327,2.6144683361053467
1772734450516341000,11.160341064453124,-1.53707754611969,0.6775590777397156,3.050212860107422
1772734450526325800,11.17032568359375,-1.213860273361206,0.667982280254364,3.265691041946411
1772734450536353300,11.180353271484375,-0.8331822156906128,0.9864110946655273,3.5266590118408203
1772734450546356200,11.190356201171875,-0.33997663855552673,0.9528923034667969,3.8139634132385254
1772734450556407600,11.200407470703125,0.12689268589019775,1.0749965906143188,4.091690540313721
1772734450566382600,11.210382568359375,0.4692635238170624,1.036689281463623,4.553771495819092
1772734450576413200,11.2204130859375,1.280897855758667,1.213860273361206,5.013458251953125
1772734450586416000,11.230416015625,2.185906171798706,1.5945383310317993,5.492298603057861
1772734450597386200,11.24138623046875,3.0310592651367188,1.845929503440857,5.710171222686768
1772734450606451500,11.250451416015625,3.648763418197632,2.5498247146606445,6.1315507888793945
1772734450618963000,11.262962890625,3.861847400665283,2.9975404739379883,6.174646377563477
1772734450626510300,11.27051025390625,4.10366153717041,3.509899616241455,6.090848922729492
1772734450636566800,11.28056689453125,3.912125587463379,3.952826976776123,5.9735331535339355
1772734450646538800,11.290538818359375,3.490746021270752,4.721365928649902,4.812345504760742
1772734450656562400,11.3005625,3.1699230670928955,4.194641590118408,4.49870491027832
1772734450666591700,11.310591796875,2.846705913543701,3.6966474056243896,4.07014274597168
1772734450676677000,11.320677001953126,2.322375535964966,3.064578056335449,4.194641590118408
1772734450686692900,11.33069287109375,1.6759412288665771,2.647987127304077,4.37420654296875
1772734450706821400,11.3508212890625,0.05267243832349777,1.9273324012756348,4.280832767486572
1772734450716904200,11.360904296875,-0.3064578175544739,1.5682021379470825,3.914519786834717
1772734450726922200,11.370922119140625,-0.3711012601852417,0.8523358106613159,3.35667085647583
1772734450736986000,11.380986083984375,-0.23942017555236816,0.19871874153614044,2.741360902786255
1772734450747048200,11.391048095703125,0.033518824726343155,-0.40701428055763245,2.0685901641845703
1772734450757739000,11.401739013671875,-0.1388636976480484,-0.6129156351089478,1.5538369417190552
1772734450767335200,11.411335205078124,-0.5147533416748047,-0.6488286852836609,1.0414776802062988
1772734450778831000,11.4228310546875,-0.9792284965515137,-0.40940847992897034,0.9840168952941895
1772734450787254500,11.431254638671875,-1.4724340438842773,-0.3974374830722809,1.036689281463623
1772734450797648600,11.441648681640626,-2.1595699787139893,-0.3232172429561615,1.192312479019165
1772734450827460400,11.47146044921875,-2.5067291259765625,-1.659181833267212,0.7445967197418213
1772734450837545000,11.481544921875,-1.889025092124939,-2.3942017555236816,-0.13407529890537262
1772734450847612700,11.49161279296875,-1.359906554222107,-2.964021682739258,-0.811634361743927
1772734450857625300,11.501625244140625,-1.1180921792984009,-3.428496837615967,-1.8722656965255737
1772734450867693000,11.511693115234374,-0.9409212470054626,-3.9600095748901367,-2.782062292098999
1772734450877770200,11.521770263671876,-0.7015010714530945,-4.381389141082764,-3.665522813796997
1772734450887786500,11.531786376953125,-0.8259995579719543,-4.752490520477295,-4.568136692047119
1772734450898161200,11.5421611328125,-0.8403648138046265,-4.920084476470947,-4.661510944366455
1772734450918590000,11.56258984375,-1.2497732639312744,-4.14915132522583,-4.027047157287598
1772734450927993300,11.571993408203125,-1.5203180313110352,-3.5960910320281982,-3.531447410583496
1772734450940542200,11.584542236328126,-1.359906554222107,-2.7461493015289307,-2.801215887069702
1772734450948115700,11.59211572265625,-1.3503297567367554,-2.33913516998291,-2.3535003662109375
1772734450958200800,11.602200927734375,-1.1779472827911377,-1.6855180263519287,-1.8602946996688843
1772734450968213800,11.6122138671875,-1.094150185585022,-1.3072341680526733,-1.7573440074920654
1772734450978269700,11.622269775390626,-1.1276689767837524,-0.730231523513794,-1.656787633895874
1772734450988289500,11.63228955078125,-1.1085153818130493,-0.5961562395095825,-1.7597382068634033
1772734450998680800,11.642680908203126,-0.730231523513794,-0.3687070608139038,-1.9033904075622559
1772734451028457500,11.67245751953125,-0.8690952062606812,0.4189853072166443,-1.9033904075622559
1772734451038542600,11.68254248046875,-0.727837324142456,0.6416460275650024,-1.678335428237915
1772734451048553700,11.6925537109375,-0.9600749015808105,0.7493851184844971,-1.4197616577148438
1772734451058631700,11.702631591796875,-0.9768342971801758,0.8978256583213806,-1.2856862545013428
1772734451068663800,11.712663818359376,-0.7972691655158997,0.8212111592292786,-1.1444283723831177
1772734451079368000,11.723367919921875,-0.6177040338516235,0.9193734526634216,-1.2090718746185303
1772734451088772000,11.732772216796874,-0.5554547905921936,1.1563993692398071,-1.115697979927063
1772734451100741600,11.74474169921875,-0.4620809257030487,1.3910311460494995,-1.1492167711257935
1772734451128979200,11.772979248046875,0.19393034279346466,2.006340980529785,-0.4405331015586853
1772734451139036400,11.783036376953126,0.1628057211637497,2.367865562438965,-0.3878606855869293
1772734451149089800,11.79308984375,0.20111294090747833,2.4181437492370605,-0.304063618183136
1772734451159165700,11.803165771484375,0.15562310814857483,2.406172752380371,-0.31124621629714966
1772734451169171500,11.81317138671875,0.11013327538967133,2.5306711196899414,-0.2537853717803955
1772734451179229400,11.8232294921875,0,2.367865562438965,-0.3423708379268646
1772734451189255400,11.83325537109375,-0.07422025501728058,2.2888567447662354,-0.42856210470199585
1772734451199640600,11.843640625,-0.3256114423274994,2.0925323963165283,-0.42616790533065796
1772734451209337600,11.853337646484375,-0.4884171485900879,2.1092917919158936,-0.2944868206977844
1772734451240101000,11.88410107421875,-0.9888052940368652,1.4748282432556152,0.28730419278144836
1772734451249758000,11.893758056640625,-0.912190854549408,1.1516109704971313,0.6512228846549988
1772734451262030000,11.906030029296875,-0.9481038451194763,1.094150185585022,0.5003881454467773
1772734451269591300,11.91359130859375,-1.072602391242981,0.9888052940368652,0.40940847992897034
1772734451279657500,11.923657470703125,-0.9361328482627869,0.9720458984375,0.29209262132644653
1772734451289661700,11.93366162109375,-0.7086837291717529,0.8020575642585754,0.33279404044151306
1772734451300041500,11.94404150390625,-0.7086837291717529,0.5626373887062073,0.38067805767059326
1772734451309774000,11.953774169921875,-0.9457096457481384,0.3687070608139038,0.5626373887062073
1772734451339902500,11.98390234375,-1.335964560508728,0.6536170840263367,1.8938134908676147
1772734451349938200,11.993938232421876,-1.5753847360610962,1.0079588890075684,2.3750481605529785
1772734451360009500,12.004009521484376,-1.4700398445129395,1.3215993642807007,2.762908697128296
1772734451370024000,12.01402392578125,-1.3407529592514038,1.403002142906189,2.9281086921691895
1772734451380080600,12.02408056640625,-0.7613561153411865,0.912190854549408,2.827552318572998
1772734451390114000,12.034114013671875,-0.4429273009300232,0.4381389021873474,2.52109432220459
1772734451401113600,12.045113525390626,-0.1149216815829277,0.16998831927776337,2.540247917175293
1772734451410212400,12.05421240234375,0.031124621629714966,-0.6177040338516235,2.5929205417633057
1772734451421915000,12.065914794921875,0.15801730751991272,-1.3646949529647827,2.631227731704712
1772734451450423600,12.094423583984375,0.6105214357376099,-2.846705913543701,3.2154128551483154
1772734451460486400,12.104486328125,1.0031704902648926,-2.406172752380371,3.205836057662964
1772734451470559200,12.114559326171875,1.3239935636520386,-1.745373010635376,3.514688014984131
1772734451480582000,12.124581787109374,1.5825673341751099,-1.070208191871643,3.706224203109741
1772734451490956800,12.134956787109376,1.8363527059555054,-1.1180921792984009,3.804386615753174
1772734451500980500,12.14498046875,2.1715409755706787,-1.2761094570159912,3.890577793121338
1772734451510689500,12.154689453125,2.2002713680267334,-1.599326729774475,3.6559460163116455
1772734451520753200,12.164753173828124,2.032677173614502,-1.7860745191574097,3.2848446369171143
1772734451530749400,12.17474951171875,1.7405846118927002,-1.8818424940109253,3.043030261993408
1772734451561537800,12.205537841796875,1.5729905366897583,-1.2497732639312744,2.63362193107605
1772734451570925300,12.21492529296875,1.316810965538025,-0.9241618514060974,2.3535003662109375
1772734451583460000,12.227460205078126,1.1180921792984009,-0.7038952708244324,2.1284453868865967
1772734451591018800,12.235018798828126,1.235408067703247,-0.6943184733390808,1.8555063009262085
1772734451601393400,12.245393310546875,1.0271124839782715,-0.727837324142456,1.5705963373184204
1772734451611077600,12.25507763671875,0.9552865028381348,-0.45010992884635925,1.335964560508728
1772734451621121500,12.26512158203125,0.2537853717803955,-0.10773907601833344,1.0630255937576294
1772734451631145200,12.275145263671876,-0.21308395266532898,0.13407529890537262,0.9816226959228516
1772734451641211100,12.285211181640625,-0.9696516990661621,0.08140286058187485,0.9792284965515137
1772734451661255200,12.305255126953124,-1.170764684677124,-0.06703764945268631,0.6536170840263367
1772734451671267300,12.315267333984375,-0.6607996821403503,0.033518824726343155,0.4213795065879822
1772734451681332000,12.32533203125,-0.4189853072166443,0.12928688526153564,0.05027823522686958
1772734451691323600,12.33532373046875,-0.0933738648891449,0.36152446269989014,-0.16998831927776337
1772734451701685200,12.345685302734376,0.12928688526153564,0.26575639843940735,-0.4213795065879822
1772734451711415300,12.355415283203126,0.17717093229293823,0.19153612852096558,-0.6943184733390808
1772734451722090800,12.3660908203125,-0.1173158809542656,0.014365210197865963,-0.8236053586006165
1772734451731479600,12.3754794921875,-0.2537853717803955,-0.2059013396501541,-0.8834604024887085
1772734451751563500,12.3955634765625,-0.629675030708313,-0.3758896589279175,-0.8906430602073669
1772734451761625900,12.4056259765625,-0.6153098344802856,-0.4189853072166443,-0.9911994934082031
1772734451771621600,12.41562158203125,-0.45250412821769714,-0.6224924325942993,-0.9840168952941895
1772734451781675000,12.425675048828126,-0.33758243918418884,-0.5937620401382446,-1.1899182796478271
1772734451791707100,12.43570703125,-0.38546648621559143,-0.6512228846549988,-1.1635819673538208
1772734451802090800,12.4460908203125,-0.3256114423274994,-0.4596867263317108,-1.1540051698684692
1772734451811777300,12.45577734375,-0.3974374830722809,-0.5746083855628967,-1.1420341730117798
1772734451821826300,12.465826416015625,-0.35434186458587646,-0.5578489899635315,-0.9816226959228516
1772734451831839200,12.475839111328124,-0.28969839215278625,-0.4836287498474121,-0.7206547260284424
1772734451851892500,12.495892578125,-0.2561795711517334,-0.21308395266532898,-0.45250412821769714
1772734451861943600,12.505943603515625,-0.3471592366695404,-0.08140286058187485,-0.3878606855869293
1772734451871964200,12.515964111328126,-0.7996633648872375,-0.14604631066322327,-0.3758896589279175
1772734451882638300,12.526638427734374,-0.6440402865409851,-0.22266076505184174,-0.3734954595565796
1772734451892028200,12.536028076171876,-0.6727706789970398,-0.3998316824436188,-0.3926490843296051
1772734451904894000,12.54889404296875,-0.5530605912208557,-0.21547815203666687,-0.40940847992897034
1772734451912378000,12.556378173828126,-0.4692635238170624,-0.004788403399288654,-0.38307225704193115
1772734451922197000,12.566197021484374,-0.30885201692581177,0.19393034279346466,-0.38307225704193115
1772734451932190700,12.576190673828124,-0.10295066982507706,0.48602294921875,-0.3734954595565796
1772734451942260500,12.586260498046874,0.10055647045373917,0.646434485912323,-0.48602294921875
1772734451972368100,12.6163681640625,0.16519992053508759,1.2425906658172607,-0.42856210470199585
1772734451982431700,12.626431640625,0.019153613597154617,1.4317326545715332,-0.30885201692581177
1772734451992431000,12.63643115234375,0.040701430290937424,1.5155296325683594,-0.28730419278144836
1772734452002820900,12.64682080078125,0.10534487664699554,1.2210428714752197,-0.3232172429561615
1772734452012487000,12.65648681640625,0.2513911724090576,1.0654197931289673,-0.30885201692581177
1772734452022554000,12.66655419921875,0.26575639843940735,0.9624691009521484,-0.35434186458587646
1772734452032578000,12.676578125,0.3256114423274994,0.8978256583213806,-0.24420857429504395
1772734452043271400,12.687271484375,0.2298433631658554,0.8930372595787048,-0.10534487664699554
1772734452052645600,12.696645751953126,0.21308395266532898,0.8547300100326538,0.019153613597154617
1772734452064347400,12.708347412109376,0.3208230137825012,0.7086837291717529,0.10534487664699554
1772734452072749000,12.7167490234375,0.3734954595565796,0.49799394607543945,0.22505496442317963
1772734452082824000,12.726823974609376,0.33758243918418884,0.19393034279346466,0.15801730751991272
1772734452092818700,12.736818603515625,0.16998831927776337,0.11252748221158981,0.2298433631658554
1772734452103179500,12.747179443359375,-0.011971008032560349,0.002394201699644327,0.2992752194404602
1772734452112895500,12.7568955078125,-0.05267243832349777,-0.22505496442317963,0.3016694188117981
1772734452122958800,12.766958740234376,-0.2082955539226532,-0.6607996821403503,0.5650315880775452
1772734452132956400,12.776956298828125,-0.29209262132644653,-0.9217676520347595,0.524330198764801
1772734452143004700,12.787004638671876,-0.4381389021873474,-0.9361328482627869,0.5530605912208557
1772734452153029000,12.797029052734375,-0.646434485912323,-1.2090718746185303,0.5482721924781799
1772734452183174400,12.82717431640625,-0.8738836050033569,-1.0295066833496094,0.586579442024231
1772734452193203200,12.837203125,-0.9816226959228516,-1.1468225717544556,0.49559974670410156
1772734452204168700,12.848168701171875,-0.9864110946655273,-0.9840168952941895,0.3974374830722809
1772734452213232000,12.857232177734375,-1.213860273361206,-0.8906430602073669,0.363918662071228
1772734452225740800,12.86974072265625,-1.2066776752471924,-0.8667010068893433,0.28730419278144836
1772734452233277400,12.87727734375,-1.1109095811843872,-1.0989385843276978,0.11971008777618408
1772734452243320600,12.887320556640624,-0.9720458984375,-1.0271124839782715,0.033518824726343155
1772734452253289500,12.89728955078125,-0.7565677165985107,-1.1492167711257935,-0.08858546614646912
1772734452263318300,12.907318359375,-0.7589619159698486,-0.9720458984375,-0.24420857429504395
1772734452283366000,12.927365966796875,-0.9624691009521484,-0.9840168952941895,-0.3232172429561615
1772734452293330700,12.93733056640625,-1.0821791887283325,-0.9720458984375,-0.395043283700943
1772734452303666000,12.947666015625,-0.9864110946655273,-0.6057330369949341,-0.3734954595565796
1772734452313372400,12.957372314453124,-1.1516109704971313,-0.49559974670410156,-0.2585737705230713
1772734452323411700,12.96741162109375,-0.8954314589500427,-0.13407529890537262,-0.12928688526153564
1772734452333385200,12.97738525390625,-0.6488286852836609,-0.1628057211637497,-0.23942017555236816
1772734452343407000,12.987406982421875,-0.33997663855552673,-0.06464344263076782,-0.38067805767059326
1772734452353431000,12.99743115234375,-0.5147533416748047,-0.2753331959247589,-0.4189853072166443
1772734452364085000,13.0080849609375,-0.3902548849582672,-0.40701428055763245,-0.49559974670410156
1772734452373453300,13.017453369140625,-0.3687070608139038,-0.5722141861915588,-0.42856210470199585
1772734452393513200,13.03751318359375,-0.4165911078453064,-0.5530605912208557,-0.36152446269989014
1772734452403854300,13.047854248046875,-0.2346317619085312,-0.5434837937355042,-0.2944868206977844
1772734452413532700,13.05753271484375,-0.05506663769483566,-0.28730419278144836,-0.33039984107017517
1772734452423553800,13.0675537109375,-0.1628057211637497,-0.004788403399288654,-0.30885201692581177
1772734452433547000,13.077547119140625,-0.0454898327589035,0.17477671802043915,-0.3998316824436188
1772734452443584300,13.087584228515626,0.026336219161748886,0.18914192914962769,-0.3064578175544739
1772734452453560300,13.097560302734376,0.004788403399288654,0.06703764945268631,-0.3447650372982025
1772734452463592000,13.107592041015625,0.16998831927776337,0.05027823522686958,-0.26096799969673157
1772734452473581800,13.117581787109375,0.2968810200691223,-0.047884032130241394,-0.22744916379451752
1772734452504350500,13.1483505859375,-0.12449848651885986,-0.5195417404174805,-0.15083470940589905
1772734452513614000,13.157614013671875,0.22266076505184174,-0.9385270476341248,-0.1628057211637497
1772734452524248300,13.168248291015624,0.17717093229293823,-0.8427590131759644,-0.12689268589019775
1772734452533598700,13.1775986328125,0.2561795711517334,-0.4189853072166443,-0.15083470940589905
1772734452546114300,13.1901142578125,0.363918662071228,-0.20350714027881622,-0.06464344263076782
1772734452553639400,13.197639404296876,0.3663128614425659,0.009576806798577309,-0.12210428714752197
1772734452563665000,13.207664794921875,0.4572925269603729,0.1388636976480484,-0.05985504388809204
1772734452573622500,13.21762255859375,0.31603461503982544,0.07422025501728058,-0.1843535304069519
1772734452603987000,13.247987060546874,-0.1412578970193863,-0.17477671802043915,-0.1364694982767105
1772734452613650200,13.257650146484375,-0.3663128614425659,-0.3232172429561615,-0.10055647045373917
1772734452623658500,13.267658447265624,-0.5147533416748047,-0.47884035110473633,-0.13407529890537262
1772734452633646300,13.277646240234375,-0.6368576288223267,-0.5363011956214905,-0.040701430290937424
1772734452643713300,13.28771337890625,-0.6775590777397156,-0.47644615173339844,0.004788403399288654
1772734452653715200,13.297715087890625,-0.7182605266571045,-0.5841852426528931,-0.1364694982767105
1772734452663771000,13.30777099609375,-0.7015010714530945,-0.507570743560791,-0.10055647045373917
1772734452673802800,13.317802734375,-0.6416460275650024,-0.4141969084739685,-0.08619125932455063
1772734452684485600,13.328485595703125,-0.47165772318840027,-0.3447650372982025,-0.19632454216480255
1772734452705908000,13.349907958984375,-0.5554547905921936,-0.37828385829925537,-0.21787235140800476
1772734452715029500,13.359029541015625,-0.5219359993934631,-0.3280056416988373,-0.24899697303771973
1772734452725103400,13.369103271484375,-0.48602294921875,-0.22266076505184174,-0.2561795711517334
1772734452735105500,13.37910546875,-0.44771572947502136,-0.22744916379451752,-0.304063618183136
1772734452745282800,13.38928271484375,-0.37828385829925537,-0.2059013396501541,-0.3016694188117981
1772734452755196700,13.39919677734375,-0.42377370595932007,-0.2106897532939911,-0.272938996553421
1772734452765245200,13.4092451171875,-0.4165911078453064,-0.1388636976480484,-0.15801730751991272
1772734452775263000,13.419262939453125,-0.3734954595565796,-0.10534487664699554,-0.181959331035614
1772734452785324500,13.429324462890625,-0.33518823981285095,-0.22744916379451752,-0.1628057211637497
1772734452815432400,13.459432373046875,-0.3758896589279175,-0.2346317619085312,-0.0694318488240242
1772734452825507800,13.4695078125,-0.3758896589279175,-0.1843535304069519,-0.043095629662275314
1772734452835510500,13.479510498046874,-0.42616790533065796,-0.22026655077934265,-0.07661445438861847
1772734452846177000,13.490177001953125,-0.2825157940387726,-0.22026655077934265,-0.07661445438861847
1772734452855582700,13.499582763671874,-0.24899697303771973,-0.24899697303771973,-0.05985504388809204
1772734452868148000,13.51214794921875,-0.2513911724090576,-0.1364694982767105,-0.038307227194309235
1772734452875678500,13.519678466796876,-0.33039984107017517,-0.2082955539226532,0.06464344263076782
1772734452885719000,13.529718994140625,-0.35434186458587646,-0.15562310814857483,0.09576806426048279
1772734452895737300,13.5397373046875,-0.35913026332855225,-0.090979665517807,-0.019153613597154617
1772734452925858800,13.56985888671875,-0.040701430290937424,0.15801730751991272,0.021547814831137657
1772734452935883500,13.579883544921875,-0.05985504388809204,0.035913024097681046,-0.004788403399288654
1772734452945959200,13.589959228515625,-0.07182604819536209,-0.004788403399288654,0.11252748221158981
1772734452955959600,13.59995947265625,-0.014365210197865963,-0.0071826050989329815,0.0694318488240242
1772734452966014200,13.61001416015625,-0.040701430290937424,-0.043095629662275314,0.08619125932455063
1772734452976034000,13.620033935546875,0.031124621629714966,-0.047884032130241394,0.0933738648891449
1772734452986498300,13.630498291015625,0.05027823522686958,-0.009576806798577309,0.08858546614646912
1772734452996127000,13.640126953125,0.1149216815829277,0.05267243832349777,0.05027823522686958
1772734453027865600,13.671865478515626,0.033518824726343155,0.033518824726343155,-0.009576806798577309
1772734453036309800,13.680309814453125,0.019153613597154617,0.0694318488240242,0.05746084079146385
1772734453046361000,13.690361083984374,0.021547814831137657,0.13168109953403473,0
1772734453056381000,13.700380859375,-0.038307227194309235,0.11971008777618408,0
1772734453066449200,13.71044921875,-0.05267243832349777,0.10534487664699554,-0.05985504388809204
1772734453076464400,13.72046435546875,-0.011971008032560349,-0.002394201699644327,-0.14604631066322327
1772734453086511400,13.730511474609376,-0.05506663769483566,-0.004788403399288654,-0.1173158809542656
1772734453096529200,13.740529052734376,-0.033518824726343155,0.021547814831137657,-0.10773907601833344
1772734453126660900,13.770660888671875,0.1173158809542656,0.019153613597154617,-0.05746084079146385
1772734453136677600,13.780677734375,0.14365209639072418,0.08858546614646912,0
1772734453146744000,13.790744140625,0.2059013396501541,0.11013327538967133,0.040701430290937424
1772734453156775000,13.80077490234375,0.16998831927776337,0.047884032130241394,0.07422025501728058
1772734453167432700,13.8114326171875,0.14604631066322327,0.038307227194309235,0.10295066982507706
1772734453176837000,13.820837158203124,0.16759411990642548,0.009576806798577309,0.20350714027881622
1772734453189394000,13.833393798828125,0.35913026332855225,0.021547814831137657,0.17956513166427612
1772734453196943600,13.840943603515624,0.6584054827690125,0.031124621629714966,0.2298433631658554
1772734453227101400,13.871101318359376,0.9624691009521484,0.040701430290937424,0.28730419278144836
1772734453237122800,13.881122802734374,0.9528923034667969,0.12449848651885986,0.31124621629714966
1772734453247182800,13.891182861328126,0.8930372595787048,0.16759411990642548,0.40940847992897034
1772734453257211100,13.901211181640624,0.7661445140838623,0.2825157940387726,0.48602294921875
1772734453267247400,13.911247314453124,0.6703764796257019,0.15083470940589905,0.5027823448181152
1772734453277230800,13.92123095703125,0.7972691655158997,-0.1604115068912506,0.5722141861915588
1772734453287243300,13.9312431640625,0.7613561153411865,-0.26336219906806946,0.5410895943641663
1772734453297214500,13.94121435546875,0.828393816947937,-0.4572925269603729,0.6655880808830261
1772734453307596000,13.951595947265625,0.811634361743927,-0.45010992884635925,0.6847416758537292
1772734453337354200,13.981354248046875,0.8595184087753296,-0.4836287498474121,0.47884035110473633
1772734453349081600,13.99308154296875,0.5315127968788147,-0.5793967843055725,0.33039984107017517
1772734453357449700,14.00144970703125,0.47165772318840027,-0.5578489899635315,0.31364041566848755
1772734453367507200,14.011507080078125,0.11013327538967133,-0.3519476354122162,0.4141969084739685
1772734453377525500,14.021525390625,0.1364694982767105,-0.30885201692581177,0.5722141861915588
1772734453387597600,14.03159765625,0.1604115068912506,-0.3280056416988373,0.6871358752250671
1772734453397618400,14.041618408203124,0.17717093229293823,-0.07661445438861847,0.6057330369949341
1772734453407981800,14.05198193359375,0.05985504388809204,0.17477671802043915,0.48602294921875
1772734453417689900,14.06168994140625,-0.035913024097681046,0.5219359993934631,0.47644615173339844
1772734453447827500,14.091827392578125,-0.2585737705230713,0.569819986820221,0.31603461503982544
1772734453457845000,14.101844970703125,-0.16519992053508759,0.6057330369949341,0.42856210470199585
1772734453467921700,14.111921630859374,-0.15801730751991272,0.6153098344802856,0.4381389021873474
1772734453477929000,14.121928955078126,-0.1173158809542656,0.7757213711738586,0.5889736413955688
1772734453488593400,14.132593505859376,-0.09816227108240128,0.9433154463768005,0.6344634294509888
1772734453497995000,14.1419951171875,-0.17717093229293823,1.1324573755264282,0.6584054827690125
1772734453510888000,14.154887939453126,-0.28730419278144836,1.2306196689605713,0.5770025849342346
1772734453518457900,14.162457763671876,-0.31603461503982544,1.4772224426269531,0.5386953949928284
1772734453528155400,14.1721552734375,-0.3758896589279175,1.4867992401123047,0.45250412821769714
1772734453548252400,14.19225244140625,-0.5482721924781799,1.6735470294952393,0.2968810200691223
1772734453558262800,14.2022626953125,-0.5602431893348694,1.556231141090393,0.23942017555236816
1772734453568331800,14.212331787109376,-0.667982280254364,1.1755530834197998,0.1149216815829277
1772734453578337800,14.222337890625,-0.7757213711738586,1.1037269830703735,0.028730420395731926
1772734453588413000,14.232412841796876,-0.8164227604866028,1.1180921792984009,0.06464344263076782
1772734453598391000,14.24239111328125,-0.7996633648872375,1.335964560508728,0.009576806798577309
1772734453608763400,14.252763427734376,-0.7110779285430908,1.3958195447921753,0.035913024097681046
1772734453618450400,14.262450439453126,-0.7781155705451965,1.4867992401123047,-0.13168109953403473
1772734453628530700,14.27253076171875,-0.8810662031173706,1.1875240802764893,-0.19393034279346466
1772734453649194000,14.293194091796876,-0.8810662031173706,0.47644615173339844,-0.3998316824436188
1772734453670277600,14.314277587890626,-0.5746083855628967,0.0071826050989329815,-0.5482721924781799
1772734453678698500,14.322698486328125,-0.26096799969673157,-0.05746084079146385,-0.7469909191131592
1772734453688754200,14.332754150390626,-0.12449848651885986,-0.22744916379451752,-0.8619126081466675
1772734453698761500,14.342761474609375,-0.17238251864910126,-0.2801215946674347,-1.1516109704971313
1772734453709128000,14.3531279296875,-0.21547815203666687,-0.29209262132644653,-1.072602391242981
1772734453718849800,14.362849853515625,-0.2585737705230713,-0.26575639843940735,-1.1061211824417114
1772734453728893700,14.372893798828125,-0.38546648621559143,0.0071826050989329815,-0.8906430602073669
1772734453738904300,14.382904296875,-0.4596867263317108,0.36152446269989014,-0.8762778043746948
1772734453758965500,14.402965576171875,-0.4692635238170624,1.1659762859344482,-0.6584054827690125
1772734453769012200,14.41301220703125,-0.11013327538967133,1.0199298858642578,-0.7086837291717529
1772734453779025200,14.423025146484376,0.2992752194404602,0.7565677165985107,-0.6991068720817566
1772734453789088500,14.433088623046874,0.33039984107017517,0.706289529800415,-0.5985504388809204
1772734453799088600,14.443088623046876,0.42616790533065796,0.5003881454467773,-0.7206547260284424
1772734453810050600,14.454050537109374,0.6009446382522583,0.07182604819536209,-0.7996633648872375
1772734453819147000,14.46314697265625,0.5817909836769104,-0.3064578175544739,-0.9409212470054626
1772734453831686700,14.475686767578125,0.6368576288223267,-0.44532153010368347,-0.8978256583213806
1772734453859260400,14.503260498046876,0.9241618514060974,0.33039984107017517,-0.7086837291717529
1772734453869321200,14.5133212890625,0.7805097699165344,0.9026140570640564,-0.5650315880775452
1772734453879351600,14.5233515625,0.6703764796257019,0.993593692779541,-0.5410895943641663
1772734453889405400,14.533405517578124,0.3974374830722809,1.0031704902648926,-0.3663128614425659
1772734453899442400,14.5434423828125,0.40701428055763245,0.9911994934082031,-0.21547815203666687
1772734453909826600,14.55382666015625,0.3232172429561615,0.7493851184844971,-0.10055647045373917
1772734453919581000,14.563580810546876,0.3495534360408783,0.706289529800415,-0.1173158809542656
1772734453929529900,14.57352978515625,0.4405331015586853,0.7086837291717529,-0.1388636976480484
1772734453939666400,14.58366650390625,0.5961562395095825,0.8259995579719543,-0.1628057211637497
1772734453970138600,14.614138671875,0.8403648138046265,0.47405192255973816,-0.08619125932455063
1772734453979523600,14.623523681640625,0.5889736413955688,0.23942017555236816,0.028730420395731926
1772734453991216400,14.63521630859375,0.29209262132644653,-0.1843535304069519,0.05985504388809204
1772734453999593700,14.64359375,0.090979665517807,-0.36152446269989014,0.021547814831137657
1772734454009949400,14.653949462890624,0.031124621629714966,-0.45010992884635925,-0.011971008032560349
1772734454019650000,14.663650146484375,-0.023942016065120697,-0.5003881454467773,-0.21308395266532898
1772734454029723000,14.673722900390626,-0.10295066982507706,-0.4405331015586853,-0.30885201692581177
1772734454039727400,14.683727294921875,0.014365210197865963,-0.4165911078453064,-0.4165911078453064
1772734454069871000,14.71387109375,-0.011971008032560349,-0.751779317855835,-0.4165911078453064
1772734454079880400,14.72388037109375,-0.15322890877723694,-0.8044517636299133,-0.629675030708313
1772734454089929200,14.73392919921875,-0.19393034279346466,-0.6871358752250671,-0.7134721279144287
1772734454099961300,14.74396142578125,-0.3495534360408783,-0.5578489899635315,-0.7637503147125244
1772734454110342400,14.75434228515625,-0.1843535304069519,-0.363918662071228,-0.7445967197418213
1772734454120034600,14.76403466796875,-0.24420857429504395,0.19393034279346466,-0.7589619159698486
1772734454130689300,14.774689208984375,-0.3974374830722809,-0.10773907601833344,-0.6153098344802856
1772734454140096500,14.784096435546875,-0.7493851184844971,-0.28969839215278625,-0.5722141861915588
1772734454152660200,14.79666015625,-0.7254431247711182,-0.3016694188117981,-0.45489832758903503
1772734454180266500,14.8242666015625,-0.23702596127986908,1.0438719987869263,-0.5817909836769104
1772734454190335700,14.834335693359375,-0.13168109953403473,1.2976573705673218,-0.5841852426528931
1772734454200345600,14.844345703125,-0.1412578970193863,1.3263877630233765,-0.7733271718025208
1772734454210700800,14.85470068359375,-0.28969839215278625,1.3623007535934448,-0.7852981686592102
1772734454220421400,14.86442138671875,-0.5195417404174805,1.357512354850769,-0.8523358106613159
1772734454230493200,14.8744931640625,-0.4692635238170624,1.170764684677124,-0.6200982332229614
1772734454240756000,14.884755859375,-0.30885201692581177,0.9265560507774353,-0.5674257874488831
1772734454250546400,14.89454638671875,-0.22266076505184174,0.5219359993934631,-0.3423708379268646
1772734454260563500,14.9045634765625,0.004788403399288654,0.29209262132644653,-0.2753331959247589
1772734454291298000,14.935298095703125,0.43095630407333374,0.7422025203704834,-0.3280056416988373
1772734454300701000,14.944700927734376,0.7445967197418213,0.8906430602073669,-0.3519476354122162
1772734454312663300,14.956663330078126,0.5793967843055725,0.7469909191131592,-0.3758896589279175
1772734454320782600,14.964782470703126,0.7182605266571045,0.5315127968788147,-0.49320554733276367
1772734454330820000,14.974820068359374,0.8020575642585754,0.49799394607543945,-0.5722141861915588
1772734454340855800,14.984855712890624,0.629675030708313,0.6177040338516235,-0.6344634294509888
1772734454350915600,14.99491552734375,0.586579442024231,0.5650315880775452,-0.6344634294509888
1772734454360940000,15.00493994140625,0.44532153010368347,0.40462008118629456,-0.6440402865409851
1772734454391056400,15.035056396484375,1.2641384601593018,0.4429273009300232,-0.4668693244457245
1772734454401047300,15.04504736328125,1.0654197931289673,0.6129156351089478,-0.2825157940387726
1772734454411397400,15.0553974609375,0.6033388376235962,0.8259995579719543,0
1772734454421096000,15.065095947265625,-0.15083470940589905,0.8954314589500427,0.3447650372982025
1772734454431153400,15.0751533203125,-0.8164227604866028,0.8906430602073669,0.6272808313369751
1772734454441149000,15.08514892578125,-1.3742717504501343,0.5339069962501526,0.8906430602073669
1772734454451798800,15.095798828125,-1.4053963422775269,0.3447650372982025,0.8738836050033569
1772734454461195000,15.105195068359375,-1.920149803161621,0.5482721924781799,0.7757213711738586
1772734454491345400,15.135345458984375,0.8044517636299133,-0.031124621629714966,0.016759412363171577
1772734454501368300,15.145368408203124,1.7357962131500244,-0.28969839215278625,0.20111294090747833
