time,seconds_elapsed,z,y,x
1772458504921840600,0.442840576171875,-0.1563815027475357,-0.48747047781944275,-0.12461651116609573
1772458504931203800,0.452203857421875,-0.028099801391363144,-0.34208452701568604,-0.0024434609804302454
1772458504943832000,0.46483203125,-0.1417207419872284,0.28466320037841797,0.4899139404296875
1772458504951900400,0.472900390625,-0.09529497474431992,0.2981022298336029,0.4447098970413208
1772458504961949400,0.482949462890625,-0.02932153269648552,0.16249015927314758,0.22479841113090515
1772458504971924700,0.4929248046875,0.006108652334660292,-0.00855211354792118,-0.004886921960860491
1772458504981965000,0.502965087890625,-0.00366519158706069,0.00366519158706069,-0.01466076634824276
1772458504991946200,0.5129462890625,-0.01710422709584236,0.009773843921720982,-0.028099801391363144
1772458505001996300,0.522996337890625,-0.01466076634824276,0.010995574295520782,-0.03176499158143997
1772458505011960800,0.5329609375,-0.013439035043120384,0.00366519158706069,-0.02687807008624077
1772458505021987300,0.5429873046875,-0.01466076634824276,0,-0.01710422709584236
1772458505031979500,0.5529794921875,-0.013439035043120384,-0.0012217304902151227,-0.01466076634824276
1772458505052002300,0.573002197265625,-0.019547687843441963,0.0024434609804302454,-0.024434609338641167
1772458505062026800,0.58302685546875,-0.024434609338641167,0.0012217304902151227,-0.03176499158143997
1772458505072010000,0.593010009765625,-0.030543262138962746,0,-0.02687807008624077
1772458505082661600,0.60366162109375,-0.03420845419168472,-0.010995574295520782,-0.01466076634824276
1772458505092018400,0.613018310546875,-0.03787364438176155,-0.019547687843441963,0.0012217304902151227
1772458505104525300,0.625525390625,-0.036651913076639175,-0.018325956538319588,0.006108652334660292
1772458505112069400,0.6330693359375,-0.03420845419168472,-0.018325956538319588,0
1772458505122126800,0.643126953125,-0.02932153269648552,-0.012217304669320583,-0.012217304669320583
1772458505132115200,0.653115234375,-0.025656340643763542,-0.00855211354792118,-0.024434609338641167
1772458505152134100,0.673134033203125,-0.010995574295520782,-0.0012217304902151227,-0.03298672288656235
1772458505162179800,0.683179931640625,-0.00366519158706069,-0.0024434609804302454,-0.028099801391363144
1772458505172164600,0.69316455078125,0.0024434609804302454,-0.004886921960860491,-0.02321287989616394
1772458505182180600,0.7031806640625,0.00733038317412138,-0.00855211354792118,-0.01710422709584236
1772458505192160000,0.713159912109375,0.009773843921720982,-0.015882495790719986,-0.010995574295520782
1772458505202192600,0.723192626953125,0.00855211354792118,-0.021991148591041565,-0.012217304669320583
1772458505212161000,0.7331611328125,0.006108652334660292,-0.02932153269648552,-0.015882495790719986
1772458505222186000,0.74318603515625,0.00855211354792118,-0.036651913076639175,-0.018325956538319588
1772458505232163800,0.753163818359375,0.013439035043120384,-0.036651913076639175,-0.019547687843441963
1772458505243118300,0.764118408203125,0.01710422709584236,-0.04153883829712868,-0.024434609338641167
1772458505263780000,0.784780029296875,0.018325956538319588,-0.05742133408784866,-0.028099801391363144
1772458505272198000,0.793197998046875,0.013439035043120384,-0.06841690838336945,-0.03298672288656235
1772458505282232300,0.803232421875,0.00733038317412138,-0.07208210229873657,-0.0354301854968071
1772458505292211200,0.813211181640625,-0.006108652334660292,-0.07452555745840073,-0.042760565876960754
1772458505302222800,0.823222900390625,-0.01710422709584236,-0.0806342139840126,-0.05009094998240471
1772458505312205000,0.833205078125,-0.019547687843441963,-0.08918632566928864,-0.05375614017248154
1772458505322237700,0.84323779296875,-0.019547687843441963,-0.09896016865968704,-0.06475171446800232
1772458505332231200,0.853231201171875,-0.019547687843441963,-0.1062905490398407,-0.05742133408784866
1772458505342550300,0.86355029296875,-0.015882495790719986,-0.12339477986097336,-0.045204028487205505
1772458505372233700,0.893233642578125,-0.018325956538319588,-0.1417207419872284,-0.036651913076639175
1772458505382255900,0.903255859375,-0.02321287989616394,-0.14538592100143433,-0.03420845419168472
1772458505392239600,0.913239501953125,-0.02687807008624077,-0.14905111491680145,-0.03298672288656235
1772458505402879700,0.923879638671875,-0.025656340643763542,-0.1514945775270462,-0.025656340643763542
1772458505412254200,0.933254150390625,-0.03298672288656235,-0.15760323405265808,-0.021991148591041565
1772458505424748300,0.945748291015625,-0.0708603709936142,-0.19792033731937408,-0.02687807008624077
1772458505432305400,0.953305419921875,-0.08429940044879913,-0.19914206862449646,-0.019547687843441963
1772458505442651100,0.963651123046875,-0.01466076634824276,-0.13561208546161652,-0.03420845419168472
1772458505452309800,0.973309814453125,-0.019547687843441963,-0.17470745742321014,-0.03787364438176155
1772458505482367200,1.0033671875,-0.04764748737215996,-0.16371189057826996,-0.036651913076639175
1772458505492339200,1.013339111328125,-0.05375614017248154,-0.16249015927314758,-0.03420845419168472
1772458505502353400,1.023353515625,-0.04764748737215996,-0.16493362188339233,-0.030543262138962746
1772458505512358100,1.033358154296875,-0.051312681287527084,-0.1661553531885147,-0.028099801391363144
1772458505522402800,1.04340283203125,-0.03420845419168472,-0.14905111491680145,-0.06352998316287994
1772458505532383000,1.053383056640625,0.00855211354792118,-0.05864306539297104,-0.16982053220272064
1772458505542713900,1.0637138671875,-0.04398229718208313,-0.12461651116609573,-0.11728613078594208
1772458505552394000,1.07339404296875,-0.03420845419168472,-0.16371189057826996,-0.06230825558304787
1772458505584060700,1.105060791015625,-0.06108652427792549,-0.1722639948129654,-0.0403171069920063
1772458505592426800,1.1134267578125,-0.04642575979232788,-0.15515977144241333,-0.0757472887635231
1772458505602468900,1.12346875,-0.018325956538319588,-0.11850785464048386,-0.009773843921720982
1772458505612453000,1.133453125,0,-0.13439035415649414,-0.028099801391363144
1772458505622460200,1.143460205078125,0,-0.07696902006864548,-0.0403171069920063
1772458505632430300,1.153430419921875,0.006108652334660292,-0.07208210229873657,-0.042760565876960754
1772458505642772500,1.1637724609375,0.0012217304902151227,-0.0659734457731247,-0.04764748737215996
1772458505652424400,1.173424560546875,0.00733038317412138,-0.04764748737215996,-0.06841690838336945
1772458505662444300,1.1834443359375,0.00855211354792118,-0.03787364438176155,-0.07208210229873657
1772458505682456300,1.203456298828125,-0.013439035043120384,-0.01710422709584236,-0.04642575979232788
1772458505702432300,1.223432373046875,-0.025656340643763542,0.0012217304902151227,-0.039095375686883926
1772458505712407600,1.233407470703125,-0.028099801391363144,0.010995574295520782,-0.039095375686883926
1772458505723048000,1.2440478515625,-0.025656340643763542,0.015882495790719986,-0.04398229718208313
1772458505732421000,1.253421142578125,-0.02321287989616394,0.018325956538319588,-0.04764748737215996
1772458505745226800,1.266226806640625,-0.015882495790719986,0.02932153269648552,-0.0403171069920063
1772458505752749800,1.273749755859375,-0.01710422709584236,0.02932153269648552,-0.04153883829712868
1772458505762477000,1.28347705078125,-0.019547687843441963,0.03298672288656235,-0.045204028487205505
1772458505792427500,1.313427490234375,-0.009773843921720982,0.03787364438176155,-0.02932153269648552
1772458505802511400,1.323511474609375,-0.0024434609804302454,0.036651913076639175,-0.024434609338641167
1772458505812476700,1.3334765625,0.0012217304902151227,0.03298672288656235,-0.018325956538319588
1772458505822494200,1.343494140625,0.00366519158706069,0.02932153269648552,-0.010995574295520782
1772458505832479500,1.3534794921875,0.00733038317412138,0.02932153269648552,-0.00366519158706069
1772458505842840000,1.363840087890625,0.012217304669320583,0.028099801391363144,0
1772458505852512000,1.373511962890625,0.010995574295520782,0.025656340643763542,0
1772458505862531800,1.38353173828125,0.010995574295520782,0.024434609338641167,-0.004886921960860491
1772458505872512000,1.393511962890625,0.009773843921720982,0.01710422709584236,-0.012217304669320583
1772458505892535800,1.413535888671875,0.009773843921720982,0.010995574295520782,-0.019547687843441963
1772458505904161800,1.425161865234375,0.009773843921720982,0.010995574295520782,-0.01710422709584236
1772458505912555300,1.43355517578125,0.009773843921720982,0.006108652334660292,-0.012217304669320583
1772458505922597600,1.44359765625,0.010995574295520782,0.00733038317412138,-0.0012217304902151227
1772458505932566000,1.45356591796875,0.012217304669320583,0,0.004886921960860491
1772458505942885600,1.4638857421875,0.013439035043120384,-0.00366519158706069,0.010995574295520782
1772458505952554800,1.4735546875,0.018325956538319588,-0.009773843921720982,0.01466076634824276
1772458505962621000,1.483620849609375,0.018325956538319588,-0.019547687843441963,0.01466076634824276
1772458505972578600,1.49357861328125,0.019547687843441963,-0.02321287989616394,0.01466076634824276
1772458506002612500,1.523612548828125,0.021991148591041565,-0.03298672288656235,0.025656340643763542
1772458506012578600,1.53357861328125,0.019547687843441963,-0.03420845419168472,0.039095375686883926
1772458506022581200,1.543581298828125,0.01710422709584236,-0.0354301854968071,0.0354301854968071
1772458506032552400,1.553552490234375,0.015882495790719986,-0.03420845419168472,0.030543262138962746
1772458506043516000,1.564515869140625,0.015882495790719986,-0.03298672288656235,0.024434609338641167
1772458506052561700,1.573561767578125,0.01466076634824276,-0.03420845419168472,0.021991148591041565
1772458506065060400,1.586060302734375,0.015882495790719986,-0.03298672288656235,0.02076941914856434
1772458506072563500,1.5935634765625,0.01466076634824276,-0.03176499158143997,0.025656340643763542
1772458506082592500,1.603592529296875,0.01466076634824276,-0.02687807008624077,0.03298672288656235
1772458506112546600,1.633546630859375,0.012217304669320583,-0.02687807008624077,0.036651913076639175
1772458506122573600,1.643573486328125,0.00855211354792118,-0.02932153269648552,0.03787364438176155
1772458506132554500,1.653554443359375,0.006108652334660292,-0.02932153269648552,0.036651913076639175
1772458506142871000,1.66387109375,-0.0012217304902151227,-0.02687807008624077,0.028099801391363144
1772458506152535000,1.67353515625,-0.00366519158706069,-0.028099801391363144,0.02321287989616394
1772458506162561000,1.68356103515625,-0.006108652334660292,-0.02687807008624077,0.02076941914856434
1772458506172525800,1.69352587890625,-0.004886921960860491,-0.028099801391363144,0.021991148591041565
1772458506182528800,1.70352880859375,-0.0012217304902151227,-0.030543262138962746,0.025656340643763542
1772458506192521200,1.713521240234375,0.0012217304902151227,-0.02932153269648552,0.03298672288656235
1772458506224153000,1.745153076171875,0.00855211354792118,-0.024434609338641167,0.03787364438176155
1772458506232511000,1.753510986328125,0.010995574295520782,-0.02687807008624077,0.03787364438176155
1772458506242859000,1.76385888671875,0.01466076634824276,-0.02321287989616394,0.039095375686883926
1772458506252510000,1.773510009765625,0.015882495790719986,-0.019547687843441963,0.039095375686883926
1772458506262511000,1.783510986328125,0.015882495790719986,-0.01710422709584236,0.0354301854968071
1772458506272483300,1.7934833984375,0.015882495790719986,-0.01466076634824276,0.02687807008624077
1772458506282518800,1.803518798828125,0.013439035043120384,-0.009773843921720982,0.019547687843441963
1772458506292478700,1.813478759765625,0.013439035043120384,-0.009773843921720982,0.012217304669320583
1772458506302480400,1.82348046875,0.012217304669320583,-0.00366519158706069,0.01710422709584236
1772458506332463400,1.85346337890625,0.00855211354792118,0,0.025656340643763542
1772458506342780000,1.86377978515625,0.00855211354792118,-0.0024434609804302454,0.01466076634824276
1772458506352442600,1.873442626953125,0.00855211354792118,-0.0012217304902151227,-0.004886921960860491
1772458506363075300,1.884075439453125,0.00855211354792118,0.0012217304902151227,-0.019547687843441963
1772458506372430800,1.893430908203125,0.00855211354792118,0,-0.02932153269648552
1772458506384932400,1.905932373046875,0.009773843921720982,-0.0012217304902151227,-0.019547687843441963
1772458506392454100,1.9134541015625,0.00855211354792118,-0.0024434609804302454,-0.01466076634824276
1772458506402482200,1.923482177734375,0.009773843921720982,-0.00366519158706069,-0.010995574295520782
1772458506432441900,1.95344189453125,0.024434609338641167,-0.00855211354792118,-0.024434609338641167
1772458506442774500,1.9637744140625,0.028099801391363144,-0.010995574295520782,-0.028099801391363144
1772458506452425700,1.97342578125,0.028099801391363144,-0.013439035043120384,-0.02687807008624077
1772458506462429400,1.983429443359375,0.02687807008624077,-0.010995574295520782,-0.028099801391363144
1772458506472408600,1.99340869140625,0.028099801391363144,-0.00733038317412138,-0.03176499158143997
1772458506482488600,2.003488525390625,0.028099801391363144,-0.0024434609804302454,-0.03176499158143997
1772458506492494600,2.01349462890625,0.025656340643763542,0.0012217304902151227,-0.03420845419168472
1772458506502491600,2.02349169921875,0.02076941914856434,0.00366519158706069,-0.03298672288656235
1772458506523103200,2.044103271484375,0.019547687843441963,0.00733038317412138,-0.03787364438176155
1772458506532478700,2.053478759765625,0.01466076634824276,0.012217304669320583,-0.04886921867728233
1772458506544376300,2.065376220703125,0.009773843921720982,0.010995574295520782,-0.06963863968849182
1772458506552492800,2.073492919921875,0.00855211354792118,0.01466076634824276,-0.07696902006864548
1772458506562509800,2.083509765625,0.00366519158706069,0.010995574295520782,-0.11484266817569733
1772458506572527900,2.09352783203125,-0.0024434609804302454,0.009773843921720982,-0.14294247329235077
1772458506582498600,2.10349853515625,-0.004886921960860491,0.013439035043120384,-0.16737708449363708
1772458506592491500,2.113491455078125,-0.010995574295520782,0.009773843921720982,-0.19058994948863983
1772458506602528000,2.123528076171875,-0.02076941914856434,0.006108652334660292,-0.22113321721553802
1772458506632516400,2.153516357421875,-0.04764748737215996,-0.021991148591041565,-0.3995058834552765
1772458506642842400,2.16384228515625,-0.05497787147760391,-0.015882495790719986,-0.46181413531303406
1772458506652492500,2.173492431640625,-0.07208210229873657,0.006108652334660292,-0.4764748811721802
1772458506662488800,2.18348876953125,-0.08918632566928864,0.01710422709584236,-0.4813618063926697
1772458506672492300,2.1934921875,-0.1319468915462494,0.03420845419168472,-0.4899139404296875
1772458506683168300,2.204168212890625,-0.17470745742321014,0.04764748737215996,-0.5277875661849976
1772458506692573400,2.213573486328125,-0.19792033731937408,0.05619960278272629,-0.5693264007568359
1772458506705111800,2.22611181640625,-0.21868975460529327,0.05619960278272629,-0.618195652961731
1772458506732739600,2.253739501953125,-0.24556782841682434,0.02321287989616394,-0.7684684991836548
1772458506743093200,2.26409326171875,-0.24678955972194672,-0.006108652334660292,-0.8026769161224365
1772458506752850000,2.273849853515625,-0.24068090319633484,-0.03420845419168472,-0.8344419002532959
1772458506762830600,2.28383056640625,-0.22602014243602753,-0.059864792972803116,-0.8674286603927612
1772458506772828700,2.29382861328125,-0.21013765037059784,-0.08674286305904388,-0.9150761365890503
1772458506782878200,2.303878173828125,-0.2028072625398636,-0.11362093687057495,-0.9663888216018677
1772458506792886000,2.313885986328125,-0.19425514340400696,-0.1368338167667389,-1.016479730606079
1772458506802908400,2.323908447265625,-0.18448130786418915,-0.15393804013729095,-1.0629055500030518
1772458506812906800,2.33390673828125,-0.1820378452539444,-0.1722639948129654,-1.0995573997497559
1772458506843826700,2.36482666015625,-0.16737708449363708,-0.2028072625398636,-1.1924089193344116
1772458506852900000,2.373900146484375,-0.15027284622192383,-0.20402899384498596,-1.156978726387024
1772458506864596700,2.3855966796875,-0.13072516024112701,-0.20891591906547546,-1.0714576244354248
1772458506872970800,2.393970703125,-0.11972958594560623,-0.2382374405860901,-0.9712757468223572
1772458506883039200,2.404039306640625,-0.10262536257505417,-0.2724458873271942,-0.8869763612747192
1772458506893006600,2.414006591796875,-0.08307767659425735,-0.3029891550540924,-0.8332201838493347
1772458506903037700,2.42403759765625,-0.06841690838336945,-0.33475416898727417,-0.8087855577468872
1772458506913038300,2.434038330078125,-0.05864306539297104,-0.36529740691185,-0.8112290501594543
1772458506923106600,2.4441064453125,-0.04886921867728233,-0.38728857040405273,-0.8381071090698242
1772458506953100500,2.4741005859375,-0.0806342139840126,-0.5436700582504272,-1.0836749076843262
1772458506963144000,2.48414404296875,-0.11484266817569733,-0.5937610268592834,-1.1924089193344116
1772458506973105200,2.494105224609375,-0.15515977144241333,-0.6316346526145935,-1.282817006111145
1772458506983127000,2.504126953125,-0.19303341209888458,-0.6585127115249634,-1.379333734512329
1772458506993120500,2.51412060546875,-0.23457226157188416,-0.6805039048194885,-1.4746286869049072
1772458507003758800,2.5247587890625,-0.27122417092323303,-0.7049384713172913,-1.5454890727996826
1772458507013131800,2.5341318359375,-0.2981022298336029,-0.7342600226402283,-1.5943583250045776
1772458507025630700,2.546630615234375,-0.33597588539123535,-0.8185594081878662,-1.6102408170700073
1772458507053152000,2.574152099609375,-0.4190535545349121,-0.988379955291748,-1.5308283567428589
1772458507063151000,2.584151123046875,-0.46303585171699524,-1.0592403411865234,-1.5418238639831543
1772458507073143000,2.59414306640625,-0.5314527750015259,-1.1191051006317139,-1.5711454153060913
1772458507083162000,2.604162109375,-0.6633996367454529,-1.205847978591919,-1.655444860458374
1772458507093118700,2.61411865234375,-0.7489207983016968,-1.2596040964126587,-1.7446311712265015
1772458507103163000,2.624162841796875,-0.8319984674453735,-1.3096951246261597,-1.852143406867981
1772458507113158400,2.634158447265625,-0.8955284357070923,-1.3475687503814697,-1.919338583946228
1772458507123177200,2.64417724609375,-0.9431759119033813,-1.4013248682022095,-1.958433985710144
1772458507133138700,2.654138671875,-0.9932668805122375,-1.4868459701538086,-1.958433985710144
1772458507163805700,2.6848056640625,-1.1252137422561646,-1.7812830209732056,-1.882686734199524
1772458507173169700,2.694169677734375,-1.1704177856445312,-1.8753563165664673,-1.881464958190918
1772458507184767200,2.705767333984375,-1.2522737979888916,-1.996307611465454,-1.880243182182312
1772458507193187000,2.71418701171875,-1.281595230102539,-2.0305161476135254,-1.8790215253829956
1772458507203223600,2.7242236328125,-1.3451253175735474,-2.076941728591919,-1.8851301670074463
1772458507213186600,2.7341865234375,-1.4135421514511108,-2.101376533508301,-1.910786509513855
1772458507223191600,2.744191650390625,-1.5222761631011963,-2.1172590255737305,-1.9511035680770874
1772458507233171700,2.754171630859375,-1.5845844745635986,-2.135584831237793,-1.9449949264526367
1772458507243499500,2.76449951171875,-1.6285667419433594,-2.141693592071533,-1.8973474502563477
1772458507273149400,2.7941494140625,-1.7201964855194092,-2.068389654159546,-1.606575608253479
1772458507283161600,2.80416162109375,-1.7214182615280151,-2.015855312347412,-1.519832730293274
1772458507293123000,2.814123046875,-1.7116444110870361,-1.930334210395813,-1.4245377779006958
1772458507303128600,2.824128662109375,-1.6908750534057617,-1.8216001987457275,-1.3292428255081177
1772458507313109000,2.83410888671875,-1.6578882932662964,-1.693318486213684,-1.235169529914856
1772458507323732700,2.844732666015625,-1.6041321754455566,-1.5552629232406616,-1.1227703094482422
1772458507333124000,2.8541240234375,-1.5173892974853516,-1.4147639274597168,-0.9920451641082764
1772458507345994800,2.866994873046875,-1.3243558406829834,-1.2302825450897217,-0.8442157506942749
1772458507373277200,2.894277099609375,-0.8051204085350037,-0.9443976879119873,-0.6805039048194885
1772458507383284700,2.90428466796875,-0.616973876953125,-0.8625417351722717,-0.6536257863044739
1772458507393286400,2.914286376953125,-0.42638394236564636,-0.7843509912490845,-0.6316346526145935
1772458507403324700,2.92432470703125,-0.251676470041275,-0.7110471725463867,-0.6157521605491638
1772458507413297700,2.934297607421875,-0.09040805697441101,-0.6352998614311218,-0.6352998614311218
1772458507423312600,2.944312744140625,0.05864306539297104,-0.5717698931694031,-0.7269296646118164
1772458507433318100,2.954318115234375,0.18081611394882202,-0.5180137157440186,-0.8796459436416626
1772458507443681000,2.964680908203125,0.2577851414680481,-0.46792277693748474,-1.0299187898635864
1772458507453352700,2.974352783203125,0.3139847218990326,-0.4190535545349121,-1.1801916360855103
1772458507473371600,2.99437158203125,0.38240164518356323,-0.33597588539123535,-1.4330898523330688
1772458507484031000,3.005031005859375,0.384845107793808,-0.3017674386501312,-1.5442672967910767
1772458507493411300,3.014411376953125,0.375071257352829,-0.29565876722335815,-1.5699236392974854
1772458507505076700,3.02607666015625,0.35674530267715454,-0.29565876722335815,-1.5601497888565063
1772458507513443300,3.034443359375,0.32620203495025635,-0.29077184200286865,-1.5076154470443726
1772458507523484400,3.044484375,0.2871066629886627,-0.28588494658470154,-1.4220943450927734
1772458507543828700,3.064828857421875,0.2076941877603531,-0.294437050819397,-1.1655309200286865
1772458507553513200,3.07451318359375,0.15882496535778046,-0.2993239760398865,-1.0018190145492554
1772458507563552500,3.084552490234375,0.1111774742603302,-0.3127630054950714,-0.8625417351722717
1772458507583562200,3.104562255859375,0.021991148591041565,-0.3530801236629486,-0.5742133259773254
1772458507593558000,3.11455810546875,0.00366519158706069,-0.384845107793808,-0.43737950921058655
1772458507603595800,3.124595703125,-0.00366519158706069,-0.39095374941825867,-0.2480112910270691
1772458507614614000,3.135614013671875,0.00733038317412138,-0.34574973583221436,0.1160643994808197
1772458507624634000,3.145634033203125,0.004886921960860491,-0.31154128909111023,0.44226643443107605
1772458507634647600,3.1556474609375,0.012217304669320583,-0.2871066629886627,0.7538077235221863
1772458507645607200,3.166607177734375,0.0354301854968071,-0.24678955972194672,1.0250319242477417
1772458507654670300,3.17567041015625,0.06230825558304787,-0.19914206862449646,1.197295904159546
1772458507667172400,3.18817236328125,0.1160643994808197,-0.16371189057826996,1.3280210494995117
1772458507684763100,3.20576318359375,0.16982053220272064,-0.15393804013729095,1.3915510177612305
1772458507694750200,3.215750244140625,0.2015855312347412,-0.16371189057826996,1.4330898523330688
1772458507704771300,3.225771240234375,0.22968533635139465,-0.18814650177955627,1.470963478088379
1772458507714769700,3.235769775390625,0.2638937830924988,-0.19914206862449646,1.4941763877868652
1772458507724812000,3.24581201171875,0.32009339332580566,-0.15760323405265808,1.4831807613372803
1772458507734808800,3.255808837890625,0.3481931984424591,-0.12339477986097336,1.4624114036560059
1772458507745139500,3.266139404296875,0.37140607833862305,-0.11239920556545258,1.4306464195251465
1772458507754822000,3.27582177734375,0.3933972120285034,-0.11239920556545258,1.3829989433288574
1772458507764850700,3.2858505859375,0.4105014503002167,-0.11239920556545258,1.3084733486175537
1772458507774823400,3.295823486328125,0.42271876335144043,-0.09896016865968704,1.2302825450897217
1772458507805491200,3.3264912109375,0.45326200127601624,-0.0708603709936142,0.9871582388877869
1772458507814863000,3.335863037109375,0.4495968222618103,-0.06841690838336945,0.9126327037811279
1772458507834896100,3.355896240234375,0.43127086758613586,-0.05742133408784866,0.7819074988365173
1772458507845242600,3.36624267578125,0.41661009192466736,-0.039095375686883926,0.6536257863044739
1772458507854899500,3.3758994140625,0.39706242084503174,-0.02687807008624077,0.5375614166259766
1772458507864899300,3.3858994140625,0.375071257352829,-0.012217304669320583,0.4178318381309509
1772458507874911000,3.395910888671875,0.35063666105270386,0,0.2968805134296417
1772458507884935000,3.405934814453125,0.3237585723400116,0.013439035043120384,0.17959438264369965
1772458507904893700,3.425893798828125,0.2785545587539673,0.039095375686883926,-0.025656340643763542
1772458507914883800,3.4358837890625,0.25534167885780334,0.021991148591041565,-0.10262536257505417
1772458507924931800,3.445931884765625,0.23335053026676178,0.00366519158706069,-0.16982053220272064
1772458507934901800,3.45590185546875,0.21135938167572021,0,-0.2272418737411499
1772458507945219300,3.46621923828125,0.19058994948863983,0,-0.2675589919090271
1772458507954900500,3.475900390625,0.16859880089759827,-0.00855211354792118,-0.28955012559890747
1772458507965525000,3.48652490234375,0.15027284622192383,-0.024434609338641167,-0.2883284091949463
1772458507974930200,3.49593017578125,0.13561208546161652,-0.045204028487205505,-0.2590068578720093
1772458507987437000,3.50843701171875,0.11484266817569733,-0.0708603709936142,-0.1869247704744339
1772458508014929000,3.535928955078125,0.08918632566928864,-0.11362093687057495,-0.0012217304902151227
1772458508024951600,3.54595166015625,0.08552113175392151,-0.12461651116609573,0.036651913076639175
1772458508034938000,3.555938232421875,0.08307767659425735,-0.13561208546161652,0.05253441259264946
1772458508045273000,3.566273193359375,0.07452555745840073,-0.14294247329235077,0.05864306539297104
1772458508054934000,3.57593408203125,0.0659734457731247,-0.1514945775270462,0.06475171446800232
1772458508064930800,3.585930908203125,0.06108652427792549,-0.15882496535778046,0.07819075137376785
1772458508074916900,3.595916748046875,0.051312681287527084,-0.16859880089759827,0.08918632566928864
1772458508084934100,3.60593408203125,0.03420845419168472,-0.16004669666290283,0.10262536257505417
1772458508094897200,3.615897216796875,-0.0012217304902151227,-0.0403171069920063,0.09651670604944229
1772458508125542100,3.646542236328125,-0.10384709388017654,-0.09162978827953339,-0.10751228034496307
1772458508134926800,3.6559267578125,-0.09040805697441101,-0.12339477986097336,-0.05864306539297104
1772458508146844200,3.66784423828125,-0.09285151958465576,-0.05619960278272629,-0.03420845419168472
1772458508154947600,3.675947509765625,-0.14538592100143433,0.04764748737215996,-0.07330382615327835
1772458508164991500,3.685991455078125,-0.17592918872833252,0.1062905490398407,-0.1160643994808197
1772458508174959000,3.695958984375,-0.17348572611808777,0.11972958594560623,-0.11972958594560623
1772458508184964900,3.70596484375,-0.17592918872833252,0.1319468915462494,-0.10751228034496307
1772458508194937000,3.71593701171875,-0.19058994948863983,0.14049901068210602,-0.09651670604944229
1772458508204984300,3.725984375,-0.19914206862449646,0.13927727937698364,-0.07941248267889023
1772458508235005000,3.7560048828125,-0.2028072625398636,0.09529497474431992,-0.08918632566928864
1772458508245333800,3.766333740234375,-0.2028072625398636,0.10384709388017654,-0.09285151958465576
1772458508264992000,3.785991943359375,-0.19303341209888458,0.07941248267889023,-0.04886921867728233
1772458508274968000,3.795968017578125,-0.18814650177955627,0.06963863968849182,-0.04153883829712868
1772458508285603300,3.806603271484375,-0.18325957655906677,0.0708603709936142,-0.05253441259264946
1772458508294966800,3.815966796875,-0.18325957655906677,0.07941248267889023,-0.0757472887635231
1772458508307458600,3.82845849609375,-0.18570303916931152,0.08796459436416626,-0.1014036312699318
1772458508314978300,3.835978271484375,-0.1869247704744339,0.09040805697441101,-0.1160643994808197
1772458508325007000,3.846007080078125,-0.18936823308467865,0.08185594528913498,-0.12828169763088226
1772458508334978600,3.855978515625,-0.18936823308467865,0.07941248267889023,-0.14294247329235077
1772458508345301200,3.86630126953125,-0.18936823308467865,0.08429940044879913,-0.15393804013729095
1772458508354980400,3.87598046875,-0.18570303916931152,0.08429940044879913,-0.15760323405265808
1772458508365011500,3.886011474609375,-0.1820378452539444,0.07941248267889023,-0.15271630883216858
1772458508374969900,3.895969970703125,-0.17837265133857727,0.06841690838336945,-0.1368338167667389
1772458508384972000,3.905971923828125,-0.17348572611808777,0.05497787147760391,-0.11728613078594208
1772458508394959000,3.915958984375,-0.1612684279680252,0.045204028487205505,-0.08918632566928864
1772458508405277400,3.92627734375,-0.15271630883216858,0.04153883829712868,-0.08429940044879913
1772458508414961400,3.93596142578125,-0.14416420459747314,0.03787364438176155,-0.09162978827953339
1772458508445899000,3.96689892578125,-0.12095131725072861,0.03176499158143997,-0.1319468915462494
1772458508454954200,3.975954345703125,-0.10995574295520782,0.02932153269648552,-0.13439035415649414
1772458508466586600,3.987586669921875,-0.09651670604944229,0.02932153269648552,-0.12950342893600464
1772458508474961000,3.9959609375,-0.08307767659425735,0.02687807008624077,-0.1160643994808197
1772458508484980500,4.00598046875,-0.06841690838336945,0.02321287989616394,-0.09896016865968704
1772458508494948000,4.015947998046875,-0.05253441259264946,0.013439035043120384,-0.07819075137376785
1772458508504962000,4.025962158203125,-0.036651913076639175,0.006108652334660292,-0.05253441259264946
1772458508514944000,4.035944091796875,-0.01710422709584236,-0.006108652334660292,-0.02321287989616394
1772458508545319700,4.066319580078125,0.04764748737215996,-0.025656340643763542,0.059864792972803116
1772458508554996500,4.07599658203125,0.0659734457731247,-0.01710422709584236,0.06108652427792549
1772458508565023700,4.086023681640625,0.0806342139840126,-0.013439035043120384,0.05497787147760391
1772458508574986500,4.095986572265625,0.09407325088977814,-0.012217304669320583,0.028099801391363144
1772458508584988400,4.105988525390625,0.1062905490398407,-0.00733038317412138,-0.018325956538319588
1772458508594960100,4.115960205078125,0.1111774742603302,0.004886921960860491,-0.0659734457731247
1772458508605619700,4.12661962890625,0.1160643994808197,0.01710422709584236,-0.10384709388017654
1772458508614995700,4.13599560546875,0.12095131725072861,0.02687807008624077,-0.12095131725072861
1772458508627479300,4.148479248046875,0.1258382350206375,0.030543262138962746,-0.12339477986097336
1772458508645341200,4.166341064453125,0.12950342893600464,0.024434609338641167,-0.10995574295520782
1772458508665028900,4.18602880859375,0.13072516024112701,0.018325956538319588,-0.0659734457731247
1772458508674996700,4.195996826171875,0.1319468915462494,0.01710422709584236,-0.05375614017248154
1772458508685014300,4.20601416015625,0.1319468915462494,0.015882495790719986,-0.04642575979232788
1772458508694983200,4.215983154296875,0.1319468915462494,0.01710422709584236,-0.03787364438176155
1772458508705008600,4.226008544921875,0.1319468915462494,0.01466076634824276,-0.03176499158143997
1772458508715029500,4.236029541015625,0.1319468915462494,0.015882495790719986,-0.02687807008624077
1772458508725050400,4.24605029296875,0.13072516024112701,0.015882495790719986,-0.02076941914856434
1772458508735012900,4.256012939453125,0.12828169763088226,0.01710422709584236,-0.00855211354792118
1772458508754995000,4.275994873046875,0.12217304855585098,0.019547687843441963,0.009773843921720982
1772458508765631200,4.28663134765625,0.11728613078594208,0.021991148591041565,0.021991148591041565
1772458508786597400,4.307597412109375,0.1062905490398407,0.03420845419168472,0.02076941914856434
1772458508795016400,4.316016357421875,0.10262536257505417,0.036651913076639175,0.015882495790719986
1772458508805051100,4.326051025390625,0.09651670604944229,0.05497787147760391,-0.009773843921720982
1772458508815023400,4.3360234375,0.09285151958465576,0.0708603709936142,-0.04153883829712868
1772458508825038800,4.346038818359375,0.09162978827953339,0.08307767659425735,-0.08185594528913498
1772458508835005000,4.3560048828125,0.09162978827953339,0.09651670604944229,-0.12217304855585098
1772458508845356300,4.366356201171875,0.09162978827953339,0.11239920556545258,-0.1563815027475357
1772458508865021000,4.38602099609375,0.10018189996480942,0.13072516024112701,-0.2064724564552307
1772458508874990800,4.395990966796875,0.10506882518529892,0.13072516024112701,-0.2174680233001709
1772458508885024500,4.4060244140625,0.10995574295520782,0.12828169763088226,-0.22113321721553802
1772458508894997800,4.415997802734375,0.11239920556545258,0.1270599663257599,-0.2174680233001709
1772458508905157000,4.4261572265625,0.11239920556545258,0.12217304855585098,-0.20891591906547546
1772458508915004200,4.436004150390625,0.1062905490398407,0.10751228034496307,-0.19547687470912933
1772458508947879400,4.46887939453125,0.0354301854968071,0.04764748737215996,-0.12217304855585098
1772458508965071600,4.486071533203125,-0.02932153269648552,0.030543262138962746,-0.09040805697441101
1772458508975043600,4.496043701171875,-0.06475171446800232,0.0354301854968071,-0.08674286305904388
1772458508985101800,4.506101806640625,-0.10018189996480942,0.04886921867728233,-0.08429940044879913
1772458508995048400,4.51604833984375,-0.13316862285137177,0.06719517707824707,-0.08552113175392151
1772458509005069300,4.5260693359375,-0.16004669666290283,0.08307767659425735,-0.08796459436416626
1772458509015036700,4.53603662109375,-0.18325957655906677,0.09162978827953339,-0.09162978827953339
1772458509025092900,4.5460927734375,-0.2028072625398636,0.09773843735456467,-0.10506882518529892
1772458509045406700,4.56640673828125,-0.2321287989616394,0.10506882518529892,-0.1661553531885147
1772458509055077400,4.576077392578125,-0.24068090319633484,0.1270599663257599,-0.22968533635139465
1772458509075099000,4.596098876953125,-0.2626720666885376,0.2064724564552307,-0.46792277693748474
1772458509085736400,4.606736328125,-0.2785545587539673,0.21868975460529327,-0.5497786998748779
1772458509095123000,4.616123046875,-0.2919935882091522,0.22968533635139465,-0.6120869517326355
1772458509106758100,4.627758056640625,-0.30543261766433716,0.24556782841682434,-0.66584312915802
1772458509115154000,4.63615380859375,-0.32131510972976685,0.2577851414680481,-0.7232644557952881
1772458509125176300,4.64617626953125,-0.34086281061172485,0.2626720666885376,-0.7648032903671265
1772458509135192800,4.65619287109375,-0.3591887652873993,0.2590068578720093,-0.7929030656814575
1772458509145557500,4.6665576171875,-0.3787364661693573,0.25534167885780334,-0.8063421249389648
1772458509155220700,4.676220703125,-0.39706242084503174,0.25045475363731384,-0.8148942589759827
1772458509165244400,4.686244384765625,-0.4129449129104614,0.24190263450145721,-0.827111542224884
1772458509215271000,4.73627099609375,-0.43737950921058655,0.14538592100143433,-0.6988298296928406
1772458509225319700,4.746319580078125,-0.4337143301963806,0.11850785464048386,-0.6426302194595337
1772458509235286300,4.756286376953125,-0.4288274049758911,0.08918632566928864,-0.5791002511978149
1772458509246216000,4.7672158203125,-0.4190535545349121,0.06352998316287994,-0.5106833577156067
1772458509255286800,4.776286865234375,-0.4105014503002167,0.0354301854968071,-0.4349360466003418
1772458509267816200,4.788816162109375,-0.3995058834552765,0.012217304669320583,-0.3640756905078888
1772458509285368600,4.80636865234375,-0.3787364661693573,-0.025656340643763542,-0.25045475363731384
1772458509295353000,4.81635302734375,-0.3677408695220947,-0.03787364438176155,-0.19792033731937408
1772458509305399000,4.82639892578125,-0.35552358627319336,-0.05009094998240471,-0.14905111491680145
1772458509315360800,4.83636083984375,-0.3384193480014801,-0.05742133408784866,-0.1062905490398407
1772458509325379300,4.84637939453125,-0.3188716471195221,-0.06108652427792549,-0.08307767659425735
1772458509335383600,4.856383544921875,-0.2993239760398865,-0.06352998316287994,-0.08185594528913498
1772458509345738500,4.866738525390625,-0.26511552929878235,-0.06352998316287994,-0.12095131725072861
1772458509355385900,4.8763857421875,-0.24068090319633484,-0.05864306539297104,-0.16982053220272064
1772458509365392400,4.886392333984375,-0.21135938167572021,-0.0403171069920063,-0.24190263450145721
1772458509375389000,4.896388916015625,-0.17592918872833252,-0.01710422709584236,-0.33475416898727417
1772458509406008800,4.9270087890625,-0.025656340643763542,0.036651913076639175,-0.6670648455619812
1772458509427060200,4.948060302734375,0.1319468915462494,0.10995574295520782,-0.7367035150527954
1772458509435393000,4.95639306640625,0.15760323405265808,0.09896016865968704,-0.7049384713172913
1772458509445713700,4.966713623046875,0.20036379992961884,0.0659734457731247,-0.5937610268592834
1772458509455391700,4.976391845703125,0.2321287989616394,0.039095375686883926,-0.4447098970413208
1772458509465425400,4.98642529296875,0.25045475363731384,0.03176499158143997,-0.28099802136421204
1772458509475387100,4.99638720703125,0.2590068578720093,0.03787364438176155,-0.07208210229873657
1772458509495377700,5.016377685546875,0.24068090319633484,0.01710422709584236,0.11728613078594208
1772458509505408000,5.026407958984375,0.22113321721553802,-0.00366519158706069,0.1771509200334549
1772458509515383300,5.03638330078125,0.2015855312347412,-0.01710422709584236,0.18814650177955627
1772458509525389800,5.046389892578125,0.17959438264369965,-0.019547687843441963,0.16859880089759827
1772458509535424000,5.056424072265625,0.15271630883216858,-0.02076941914856434,0.10506882518529892
1772458509545788000,5.066787841796875,0.12217304855585098,-0.021991148591041565,0.0354301854968071
1772458509555428900,5.076428955078125,0.08918632566928864,-0.018325956538319588,-0.028099801391363144
1772458509566077400,5.087077392578125,0.05864306539297104,-0.021991148591041565,-0.07452555745840073
1772458509575499800,5.096499755859375,0.030543262138962746,-0.02932153269648552,-0.08429940044879913
1772458509588046300,5.10904638671875,-0.006108652334660292,-0.04642575979232788,-0.04398229718208313
1772458509615661000,5.1366611328125,-0.08796459436416626,-0.06719517707824707,0.2480112910270691
1772458509625690000,5.146690185546875,-0.11484266817569733,-0.07696902006864548,0.34086281061172485
1772458509635647000,5.15664697265625,-0.13561208546161652,-0.0806342139840126,0.4178318381309509
1772458509645966600,5.166966552734375,-0.14782938361167908,-0.08552113175392151,0.46303585171699524
1772458509655644400,5.17664453125,-0.15027284622192383,-0.09896016865968704,0.4605923891067505
1772458509665694700,5.18669482421875,-0.15393804013729095,-0.11484266817569733,0.4386012554168701
1772458509675656200,5.19665625,-0.15882496535778046,-0.12950342893600464,0.39217549562454224
1772458509685667000,5.2066669921875,-0.1612684279680252,-0.12828169763088226,0.36163222789764404
1772458509695653400,5.2166533203125,-0.16004669666290283,-0.11972958594560623,0.3579670190811157
1772458509715652900,5.23665283203125,-0.15515977144241333,-0.09407325088977814,0.3836233615875244
1772458509726275800,5.24727587890625,-0.13316862285137177,-0.07208210229873657,0.3689626157283783
1772458509735679000,5.256678955078125,-0.12217304855585098,-0.06352998316287994,0.34574973583221436
1772458509747604700,5.268604736328125,-0.08918632566928864,-0.024434609338641167,0.24068090319633484
1772458509755707600,5.276707763671875,-0.06963863968849182,0.004886921960860491,0.1661553531885147
1772458509765719000,5.286718994140625,-0.042760565876960754,0.0354301854968071,0.08429940044879913
1772458509775711200,5.296711181640625,-0.00855211354792118,0.06475171446800232,0.006108652334660292
1772458509785743400,5.306743408203125,0.01710422709584236,0.09285151958465576,-0.05375614017248154
1772458509795702800,5.316702880859375,0.04642575979232788,0.11728613078594208,-0.10384709388017654
1772458509805743400,5.326743408203125,0.0708603709936142,0.14416420459747314,-0.13927727937698364
1772458509835729000,5.35672900390625,0.1270599663257599,0.18325957655906677,-0.15027284622192383
1772458509855754200,5.376754150390625,0.14538592100143433,0.17959438264369965,-0.1612684279680252
1772458509865788700,5.38678857421875,0.14538592100143433,0.1771509200334549,-0.15515977144241333
1772458509875758800,5.3967587890625,0.13805554807186127,0.17592918872833252,-0.13927727937698364
1772458509886382600,5.407382568359375,0.1270599663257599,0.17104226350784302,-0.14049901068210602
1772458509895763200,5.41676318359375,0.10873401165008545,0.16737708449363708,-0.15027284622192383
1772458509908283100,5.429283203125,0.08918632566928864,0.16737708449363708,-0.15882496535778046
1772458509925792500,5.44679248046875,0.045204028487205505,0.1563815027475357,-0.17348572611808777
1772458509935775200,5.456775146484375,0.021991148591041565,0.14538592100143433,-0.1771509200334549
1772458509946108200,5.467108154296875,0,0.13316862285137177,-0.17348572611808777
1772458509955763700,5.476763671875,-0.02321287989616394,0.11728613078594208,-0.1722639948129654
1772458509965769200,5.486769287109375,-0.042760565876960754,0.1062905490398407,-0.17470745742321014
1772458509985777000,5.50677685546875,-0.0806342139840126,0.08674286305904388,-0.1661553531885147
1772458510005765400,5.526765380859375,-0.10506882518529892,0.06108652427792549,-0.15271630883216858
1772458510015760000,5.536759765625,-0.11728613078594208,0.03787364438176155,-0.14294247329235077
1772458510035751400,5.55675146484375,-0.1258382350206375,0.01466076634824276,-0.10873401165008545
1772458510046701800,5.567701904296875,-0.12461651116609573,0.006108652334660292,-0.09162978827953339
1772458510055772000,5.57677197265625,-0.12217304855585098,-0.00733038317412138,-0.07696902006864548
1772458510067381200,5.58838134765625,-0.11850785464048386,-0.019547687843441963,-0.06230825558304787
1772458510075763700,5.596763671875,-0.11239920556545258,-0.025656340643763542,-0.051312681287527084
1772458510085770200,5.606770263671875,-0.1062905490398407,-0.02687807008624077,-0.04764748737215996
1772458510095761400,5.616761474609375,-0.09529497474431992,-0.02687807008624077,-0.04642575979232788
1772458510105803800,5.6268037109375,-0.08429940044879913,-0.028099801391363144,-0.042760565876960754
1772458510125780000,5.646780029296875,-0.05742133408784866,-0.0354301854968071,-0.045204028487205505
1772458510165822200,5.686822265625,0.0012217304902151227,-0.004886921960860491,-0.13072516024112701
1772458510175817700,5.696817626953125,0.00855211354792118,0.0012217304902151227,-0.14782938361167908
1772458510185855700,5.706855712890625,0.015882495790719986,0.00366519158706069,-0.15027284622192383
1772458510195837400,5.71683740234375,0.02321287989616394,0.0012217304902151227,-0.1417207419872284
1772458510206457600,5.72745751953125,0.025656340643763542,0.0024434609804302454,-0.12217304855585098
1772458510215840300,5.73684033203125,0.024434609338641167,-0.00366519158706069,-0.10018189996480942
1772458510228361700,5.74936181640625,0.01710422709584236,-0.01466076634824276,-0.05742133408784866
1772458510235872500,5.75687255859375,0.01466076634824276,-0.02076941914856434,-0.045204028487205505
1772458510246208800,5.767208740234375,0.00855211354792118,-0.02687807008624077,-0.01466076634824276
1772458510265934600,5.7869345703125,-0.006108652334660292,-0.04764748737215996,0.04642575979232788
1772458510275902700,5.79690283203125,-0.01710422709584236,-0.06352998316287994,0.06963863968849182
1772458510286190800,5.80719091796875,-0.025656340643763542,-0.06352998316287994,0.0708603709936142
1772458510295925800,5.81692578125,-0.0354301854968071,-0.05619960278272629,0.06841690838336945
1772458510305961000,5.8269609375,-0.04398229718208313,-0.05009094998240471,0.059864792972803116
1772458510315920100,5.836920166015625,-0.05009094998240471,-0.04398229718208313,0.045204028487205505
1772458510325927700,5.846927734375,-0.05497787147760391,-0.0403171069920063,0.03176499158143997
1772458510335931100,5.85693115234375,-0.059864792972803116,-0.036651913076639175,0.018325956538319588
1772458510346285300,5.867285400390625,-0.05864306539297104,-0.03420845419168472,0.00855211354792118
1772458510355934000,5.876933837890625,-0.05619960278272629,-0.03176499158143997,-0.0012217304902151227
1772458510387637500,5.908637451171875,-0.03176499158143997,-0.02687807008624077,-0.0012217304902151227
1772458510395980000,5.91697998046875,-0.02687807008624077,-0.024434609338641167,-0.00366519158706069
1772458510406002200,5.927002197265625,-0.015882495790719986,-0.01710422709584236,-0.006108652334660292
1772458510416004000,5.937004150390625,0.0012217304902151227,-0.00855211354792118,-0.004886921960860491
1772458510426055200,5.94705517578125,0.013439035043120384,-0.0012217304902151227,0.004886921960860491
1772458510436033500,5.957033447265625,0.025656340643763542,0.0012217304902151227,0.01466076634824276
1772458510446358800,5.96735888671875,0.039095375686883926,0.006108652334660292,0.02321287989616394
1772458510456041200,5.977041259765625,0.05009094998240471,0.006108652334660292,0.024434609338641167
1772458510466088400,5.98708837890625,0.06108652427792549,0.00855211354792118,0.021991148591041565
1772458510486109200,6.007109130859375,0.07452555745840073,0.019547687843441963,-0.0012217304902151227
1772458510496113000,6.01711279296875,0.07819075137376785,0.025656340643763542,-0.01466076634824276
1772458510506169300,6.02716943359375,0.0806342139840126,0.03176499158143997,-0.019547687843441963
1772458510516144000,6.03714404296875,0.08429940044879913,0.03298672288656235,-0.02076941914856434
1772458510526779000,6.04777880859375,0.08674286305904388,0.0354301854968071,-0.009773843921720982
1772458510536186000,6.05718603515625,0.08796459436416626,0.036651913076639175,-0.0012217304902151227
1772458510549054500,6.070054443359375,0.09407325088977814,0.03298672288656235,0.02076941914856434
1772458510566263600,6.087263671875,0.10262536257505417,0.02932153269648552,0.04764748737215996
1772458510586311200,6.107311279296875,0.10751228034496307,0.021991148591041565,0.05253441259264946
1772458510596273700,6.117273681640625,0.10873401165008545,0.02687807008624077,0.05375614017248154
1772458510606289200,6.1272890625,0.1111774742603302,0.028099801391363144,0.05253441259264946
1772458510617307600,6.1383076171875,0.1111774742603302,0.03176499158143997,0.05864306539297104
1772458510627346400,6.148346435546875,0.11362093687057495,0.03298672288656235,0.0708603709936142
1772458510637316600,6.158316650390625,0.11362093687057495,0.02687807008624077,0.07941248267889023
1772458510647643100,6.16864306640625,0.11484266817569733,0.02076941914856434,0.08918632566928864
1772458510657327000,6.1783271484375,0.1111774742603302,0.019547687843441963,0.08429940044879913
1772458510667355100,6.188355224609375,0.10751228034496307,0.019547687843441963,0.06352998316287994
1772458510677330400,6.198330322265625,0.10018189996480942,0.024434609338641167,0.036651913076639175
1772458510697328000,6.218328125,0.07819075137376785,0.030543262138962746,-0.024434609338641167
1772458510708941600,6.229941650390625,0.06719517707824707,0.036651913076639175,-0.0354301854968071
1772458510717330000,6.238329833984375,0.05497787147760391,0.036651913076639175,-0.0403171069920063
1772458510727339800,6.24833984375,0.045204028487205505,0.03176499158143997,-0.036651913076639175
1772458510737321200,6.2583212890625,0.03420845419168472,0.02687807008624077,-0.025656340643763542
1772458510747656400,6.268656494140625,0.021991148591041565,0.02076941914856434,-0.013439035043120384
1772458510757308400,6.278308349609375,0.010995574295520782,0.013439035043120384,-0.00733038317412138
1772458510767329800,6.288329833984375,0,0.00733038317412138,-0.0024434609804302454
1772458510797330200,6.318330078125,-0.045204028487205505,-0.01466076634824276,-0.004886921960860491
1772458510807357700,6.328357666015625,-0.059864792972803116,-0.021991148591041565,-0.012217304669320583
1772458510817385500,6.338385498046875,-0.07452555745840073,-0.02687807008624077,-0.009773843921720982
1772458510827420400,6.34842041015625,-0.08674286305904388,-0.030543262138962746,-0.00366519158706069
1772458510837389600,6.3583896484375,-0.09896016865968704,-0.03298672288656235,0.00366519158706069
1772458510848324900,6.369324951171875,-0.1111774742603302,-0.036651913076639175,0.012217304669320583
1772458510857406000,6.378406005859375,-0.12217304855585098,-0.04398229718208313,0.021991148591041565
1772458510869931000,6.390930908203125,-0.13561208546161652,-0.04886921867728233,0.03787364438176155
1772458510877433000,6.39843310546875,-0.14049901068210602,-0.04764748737215996,0.0403171069920063
1772458510887443200,6.408443115234375,-0.14294247329235077,-0.04886921867728233,0.03420845419168472
1772458510907466200,6.42846630859375,-0.15271630883216858,-0.04398229718208313,0.013439035043120384
1772458510927447600,6.448447509765625,-0.16859880089759827,-0.0403171069920063,-0.00855211354792118
1772458510937470200,6.45847021484375,-0.16737708449363708,-0.0354301854968071,-0.004886921960860491
1772458510947802600,6.468802734375,-0.16249015927314758,-0.036651913076639175,-0.0012217304902151227
1772458510957459200,6.478459228515625,-0.1612684279680252,-0.039095375686883926,0.0024434609804302454
1772458510967490800,6.48849072265625,-0.1563815027475357,-0.0403171069920063,-0.0024434609804302454
1772458510977490400,6.498490478515625,-0.15027284622192383,-0.036651913076639175,-0.013439035043120384
1772458510987509500,6.508509521484375,-0.13927727937698364,-0.03176499158143997,-0.025656340643763542
1772458510997472000,6.518471923828125,-0.13316862285137177,-0.03420845419168472,-0.03420845419168472
1772458511017527300,6.53852734375,-0.10995574295520782,-0.03420845419168472,-0.04642575979232788
1772458511029159200,6.5501591796875,-0.09651670604944229,-0.03298672288656235,-0.04642575979232788
1772458511047825400,6.568825439453125,-0.06719517707824707,-0.028099801391363144,-0.028099801391363144
1772458511057831400,6.57883154296875,-0.05375614017248154,-0.02932153269648552,-0.01710422709584236
1772458511067544300,6.58854443359375,-0.045204028487205505,-0.03420845419168472,-0.006108652334660292
1772458511077499100,6.5984990234375,-0.03298672288656235,-0.02932153269648552,-0.0012217304902151227
1772458511087502800,6.6085029296875,-0.01710422709584236,-0.021991148591041565,-0.0012217304902151227
1772458511097494300,6.618494384765625,-0.00366519158706069,-0.012217304669320583,0
1772458511107538400,6.628538330078125,0.004886921960860491,0,0.00366519158706069
1772458511127496400,6.648496337890625,0.02687807008624077,0.010995574295520782,-0.00366519158706069
1772458511137489700,6.65848974609375,0.03420845419168472,0.013439035043120384,-0.010995574295520782
1772458511147819500,6.668819580078125,0.0403171069920063,0.02076941914856434,-0.021991148591041565
1772458511157470000,6.678469970703125,0.04642575979232788,0.028099801391363144,-0.03298672288656235
1772458511168087000,6.689087158203125,0.05253441259264946,0.03176499158143997,-0.036651913076639175
1772458511189990700,6.71099072265625,0.07330382615327835,0.04764748737215996,-0.02932153269648552
1772458511207514000,6.72851416015625,0.07941248267889023,0.04153883829712868,-0.024434609338641167
1772458511227536400,6.748536376953125,0.08796459436416626,0.0403171069920063,-0.00733038317412138
1772458511237497000,6.7584970703125,0.08918632566928864,0.036651913076639175,0.0012217304902151227
1772458511247812600,6.7688125,0.08918632566928864,0.036651913076639175,0.013439035043120384
1772458511257542000,6.7785419921875,0.08674286305904388,0.03298672288656235,0.02321287989616394
1772458511267565800,6.78856591796875,0.08674286305904388,0.028099801391363144,0.03298672288656235
1772458511277521400,6.798521484375,0.08307767659425735,0.02321287989616394,0.04398229718208313
1772458511287527400,6.80852734375,0.07941248267889023,0.02076941914856434,0.05497787147760391
1772458511297526500,6.818526611328125,0.07941248267889023,0.01710422709584236,0.0659734457731247
1772458511307557400,6.828557373046875,0.07819075137376785,0.018325956538319588,0.0757472887635231
1772458511317523200,6.838523193359375,0.0708603709936142,0.019547687843441963,0.09040805697441101
1772458511349517300,6.870517333984375,0.0708603709936142,0.019547687843441963,0.07696902006864548
1772458511367633200,6.888633056640625,0.06230825558304787,0.00366519158706069,0.09162978827953339
1772458511377636600,6.89863671875,0.059864792972803116,0.0012217304902151227,0.07452555745840073
1772458511387666700,6.908666748046875,0.06230825558304787,0.0012217304902151227,0.05253441259264946
1772458511397636600,6.91863671875,0.059864792972803116,0.00366519158706069,0.045204028487205505
1772458511407649000,6.92864892578125,0.05009094998240471,-0.0012217304902151227,0.039095375686883926
1772458511417648000,6.938648193359375,0.05375614017248154,0.0024434609804302454,0.02321287989616394
1772458511427679000,6.948678955078125,0.05619960278272629,0.006108652334660292,0.021991148591041565
1772458511447983000,6.968983154296875,0.04764748737215996,0.00366519158706069,0.02321287989616394
1772458511457666800,6.978666748046875,0.04398229718208313,0.0024434609804302454,0.024434609338641167
1772458511467695000,6.988695068359375,0.04153883829712868,-0.0012217304902151227,0.025656340643763542
1772458511477653800,6.99865380859375,0.039095375686883926,-0.0024434609804302454,0.028099801391363144
1772458511488267800,7.009267822265625,0.03298672288656235,-0.004886921960860491,0.03420845419168472
1772458511497692700,7.018692626953125,0.028099801391363144,-0.009773843921720982,0.03420845419168472
1772458511510197500,7.031197509765625,0.02321287989616394,-0.009773843921720982,0.0354301854968071
1772458511517698800,7.03869873046875,0.015882495790719986,-0.010995574295520782,0.018325956538319588
1772458511527706000,7.0487060546875,0.012217304669320583,-0.010995574295520782,0.00733038317412138
1772458511548074800,7.06907470703125,0.012217304669320583,-0.02321287989616394,-0.0024434609804302454
1772458511557731300,7.0787314453125,0.004886921960860491,-0.02687807008624077,-0.006108652334660292
1772458511567747800,7.088747802734375,0.006108652334660292,-0.02321287989616394,-0.00733038317412138
1772458511577744000,7.098743896484375,0.0024434609804302454,-0.024434609338641167,-0.01466076634824276
1772458511587781000,7.108781005859375,-0.015882495790719986,-0.02321287989616394,-0.0354301854968071
1772458511607757600,7.128757568359375,-0.019547687843441963,-0.013439035043120384,-0.05619960278272629
1772458511617775400,7.138775390625,-0.02932153269648552,-0.012217304669320583,-0.07208210229873657
1772458511627808800,7.148808837890625,-0.0354301854968071,-0.00733038317412138,-0.08552113175392151
1772458511637789000,7.158788818359375,-0.0354301854968071,-0.0012217304902151227,-0.09651670604944229
1772458511657793500,7.17879345703125,-0.04642575979232788,0.012217304669320583,-0.1417207419872284
1772458511669460000,7.1904599609375,-0.04764748737215996,0.021991148591041565,-0.16493362188339233
1772458511677793300,7.198793212890625,-0.04642575979232788,0.028099801391363144,-0.17837265133857727
1772458511687813000,7.208813232421875,-0.04764748737215996,0.02687807008624077,-0.1820378452539444
1772458511697801200,7.21880126953125,-0.04642575979232788,0.024434609338641167,-0.17470745742321014
1772458511707823900,7.228823974609375,-0.04153883829712868,0.02321287989616394,-0.16004669666290283
1772458511717780700,7.23878076171875,-0.0403171069920063,0.021991148591041565,-0.1368338167667389
1772458511727787000,7.248787109375,-0.0354301854968071,0.024434609338641167,-0.09040805697441101
1772458511737808600,7.25880859375,-0.02932153269648552,0.03420845419168472,-0.05619960278272629
1772458511748140300,7.269140380859375,-0.02321287989616394,0.03420845419168472,-0.02687807008624077
1772458511777794300,7.298794189453125,-0.006108652334660292,0.015882495790719986,0.018325956538319588
1772458511787840000,7.308840087890625,-0.00855211354792118,0.02076941914856434,0.01466076634824276
1772458511797795600,7.318795654296875,-0.006108652334660292,0.03420845419168472,0.012217304669320583
1772458511808406000,7.329406005859375,0.0024434609804302454,0.045204028487205505,0.006108652334660292
1772458511817790000,7.3387900390625,0.00733038317412138,0.04642575979232788,-0.0024434609804302454
1772458511830296000,7.351296142578125,0.009773843921720982,0.02321287989616394,-0.012217304669320583
1772458511848128800,7.369128662109375,0.01466076634824276,0.009773843921720982,-0.01466076634824276
1772458511877833700,7.398833740234375,0.010995574295520782,0.042760565876960754,-0.04764748737215996
1772458511887854000,7.40885400390625,0.00366519158706069,0.04153883829712868,-0.05742133408784866
1772458511897840600,7.418840576171875,-0.0012217304902151227,0.0354301854968071,-0.0708603709936142
1772458511907867600,7.42886767578125,-0.00366519158706069,0.03298672288656235,-0.07330382615327835
1772458511917829600,7.43882958984375,-0.00733038317412138,0.02321287989616394,-0.06719517707824707
1772458511927862800,7.44886279296875,-0.010995574295520782,0.00855211354792118,-0.04153883829712868
1772458511937849900,7.458849853515625,-0.010995574295520782,0.0012217304902151227,-0.013439035043120384
1772458511948199200,7.46919921875,-0.00855211354792118,-0.006108652334660292,0.004886921960860491
1772458511957854000,7.47885400390625,-0.00733038317412138,-0.00855211354792118,0.01466076634824276
1772458511968485000,7.489485107421875,-0.00733038317412138,-0.013439035043120384,0.02076941914856434
1772458511989486800,7.51048681640625,-0.015882495790719986,-0.01710422709584236,0.018325956538319588
1772458511997873700,7.518873779296875,-0.018325956538319588,-0.015882495790719986,0.004886921960860491
1772458512027935500,7.548935546875,-0.02076941914856434,-0.0012217304902151227,-0.021991148591041565
1772458512037893600,7.5588935546875,-0.02076941914856434,0,-0.013439035043120384
1772458512048212200,7.569212158203125,-0.019547687843441963,0,-0.00366519158706069
1772458512057888500,7.578888427734375,-0.01710422709584236,0.0012217304902151227,0.00366519158706069
1772458512067910700,7.58891064453125,-0.01466076634824276,0.004886921960860491,0.006108652334660292
1772458512087883500,7.608883544921875,-0.009773843921720982,-0.00855211354792118,0.009773843921720982
1772458512107887900,7.628887939453125,-0.010995574295520782,-0.012217304669320583,0.021991148591041565
1772458512117850600,7.6388505859375,-0.013439035043120384,-0.015882495790719986,0.024434609338641167
1772458512128480000,7.64947998046875,-0.013439035043120384,-0.01466076634824276,0.030543262138962746
1772458512137894700,7.658894775390625,-0.015882495790719986,-0.00855211354792118,0.0403171069920063
1772458512150742500,7.671742431640625,-0.021991148591041565,-0.01466076634824276,0.0403171069920063
1772458512158282800,7.67928271484375,-0.025656340643763542,-0.019547687843441963,0.042760565876960754
1772458512167963600,7.688963623046875,-0.024434609338641167,-0.019547687843441963,0.045204028487205505
1772458512177941200,7.698941162109375,-0.024434609338641167,-0.015882495790719986,0.04153883829712868
1772458512207952000,7.728951904296875,-0.019547687843441963,-0.025656340643763542,0.04764748737215996
1772458512217935400,7.738935302734375,-0.019547687843441963,-0.025656340643763542,0.05253441259264946
1772458512227972400,7.748972412109375,-0.01466076634824276,-0.021991148591041565,0.05619960278272629
1772458512237915400,7.758915283203125,-0.00855211354792118,-0.02076941914856434,0.05742133408784866
1772458512248251600,7.769251708984375,-0.00366519158706069,-0.021991148591041565,0.06108652427792549
1772458512257925400,7.77892529296875,0,-0.025656340643763542,0.0659734457731247
1772458512267969300,7.78896923828125,0.00366519158706069,-0.025656340643763542,0.06963863968849182
1772458512288557300,7.809557373046875,0.013439035043120384,-0.02321287989616394,0.051312681287527084
1772458512309613600,7.830613525390625,0.010995574295520782,-0.02687807008624077,0.04764748737215996
1772458512317964000,7.838964111328125,0.009773843921720982,-0.03176499158143997,0.05497787147760391
1772458512327970300,7.84897021484375,0.009773843921720982,-0.03176499158143997,0.06963863968849182
1772458512337964000,7.858964111328125,0.009773843921720982,-0.028099801391363144,0.07819075137376785
1772458512348297700,7.869297607421875,0.009773843921720982,-0.02321287989616394,0.08429940044879913
1772458512357945600,7.878945556640625,0.010995574295520782,-0.02321287989616394,0.07941248267889023
1772458512367964200,7.888964111328125,0.009773843921720982,-0.021991148591041565,0.07208210229873657
1772458512387980500,7.90898046875,0.019547687843441963,-0.02076941914856434,0.04886921867728233
1772458512417961000,7.9389609375,0.04153883829712868,-0.01710422709584236,0.02932153269648552
1772458512427987200,7.9489873046875,0.04642575979232788,-0.01466076634824276,0.028099801391363144
1772458512437942000,7.95894189453125,0.04886921867728233,-0.012217304669320583,0.02076941914856434
1772458512448866600,7.969866455078125,0.05009094998240471,-0.010995574295520782,0.010995574295520782
1772458512457957400,7.978957275390625,0.05009094998240471,-0.012217304669320583,0.009773843921720982
1772458512470456800,7.991456787109375,0.05253441259264946,-0.01710422709584236,0.01710422709584236
1772458512477959700,7.998959716796875,0.05253441259264946,-0.015882495790719986,0.02076941914856434
1772458512487959800,8.008959716796875,0.051312681287527084,-0.01710422709584236,0.021991148591041565
1772458512497948400,8.018948486328124,0.04764748737215996,-0.02321287989616394,0.03176499158143997
1772458512527956200,8.048956298828125,0.045204028487205505,-0.0354301854968071,0.07452555745840073
1772458512537974300,8.058974365234375,0.042760565876960754,-0.03787364438176155,0.08185594528913498
1772458512548321000,8.069321044921875,0.04153883829712868,-0.04398229718208313,0.08429940044879913
1772458512557987800,8.07898779296875,0.039095375686883926,-0.04398229718208313,0.08674286305904388
1772458512568007000,8.0890068359375,0.0354301854968071,-0.045204028487205505,0.08552113175392151
1772458512578020000,8.09902001953125,0.03420845419168472,-0.04642575979232788,0.08674286305904388
1772458512588059100,8.10905908203125,0.03420845419168472,-0.04764748737215996,0.09407325088977814
1772458512608686300,8.129686279296875,0.03420845419168472,-0.05742133408784866,0.11484266817569733
1772458512629730000,8.15072998046875,0.0354301854968071,-0.05619960278272629,0.1368338167667389
1772458512648465200,8.169465087890625,0.036651913076639175,-0.06352998316287994,0.1466076523065567
1772458512658172200,8.179172119140626,0.03787364438176155,-0.06352998316287994,0.15515977144241333
1772458512668211000,8.1892109375,0.036651913076639175,-0.06719517707824707,0.15027284622192383
1772458512678208500,8.19920849609375,0.03420845419168472,-0.06719517707824707,0.15882496535778046
1772458512688221700,8.2092216796875,0.03298672288656235,-0.06963863968849182,0.16371189057826996
1772458512698245000,8.2192451171875,0.03298672288656235,-0.0708603709936142,0.1771509200334549
1772458512708281600,8.229281494140626,0.030543262138962746,-0.07819075137376785,0.19303341209888458
1772458512718256000,8.239256103515626,0.02932153269648552,-0.08429940044879913,0.21380282938480377
1772458512738301000,8.259301025390625,0.024434609338641167,-0.09651670604944229,0.23090706765651703
1772458512748653800,8.26965380859375,0.018325956538319588,-0.09407325088977814,0.2321287989616394
1772458512758318000,8.279318115234375,0.012217304669320583,-0.09162978827953339,0.23457226157188416
1772458512768337700,8.289337646484375,0.00855211354792118,-0.09162978827953339,0.23945917189121246
1772458512788379400,8.30937939453125,0.004886921960860491,-0.10384709388017654,0.2590068578720093
1772458512798359800,8.31935986328125,0.004886921960860491,-0.1160643994808197,0.2724458873271942
1772458512808382500,8.329382568359375,0.006108652334660292,-0.12217304855585098,0.2932153046131134
1772458512858437600,8.379437744140626,0.021991148591041565,-0.19058994948863983,0.48258355259895325
1772458512868474600,8.389474609375,0.02687807008624077,-0.2076941877603531,0.5338962078094482
1772458512878447000,8.399447021484375,0.02932153269648552,-0.22479841113090515,0.588874101638794
1772458512898477000,8.41947705078125,0.04153883829712868,-0.2480112910270691,0.6914994716644287
1772458512908524800,8.42952490234375,0.051312681287527084,-0.2431243658065796,0.6695083379745483
1772458512918505500,8.43950537109375,0.05009094998240471,-0.22846360504627228,0.6010913848876953
1772458512928530200,8.4495302734375,0.04398229718208313,-0.18448130786418915,0.4764748811721802
1772458512938779600,8.459779541015624,0.0403171069920063,-0.14416420459747314,0.38606682419776917
1772458512948917000,8.4699169921875,0.03298672288656235,-0.11484266817569733,0.2883284091949463
1772458512998652400,8.51965234375,0.00855211354792118,-0.0403171069920063,0.07452555745840073
1772458513008683300,8.529683349609375,0.0012217304902151227,-0.039095375686883926,0.06108652427792549
1772458513028732000,8.54973193359375,0.00366519158706069,-0.036651913076639175,0.05375614017248154
1772458513038711600,8.559711669921874,0.0012217304902151227,-0.030543262138962746,0.09407325088977814
1772458513049045500,8.57004541015625,0.006108652334660292,-0.030543262138962746,0.12461651116609573
1772458513058743800,8.579743896484375,0.010995574295520782,-0.036651913076639175,0.15393804013729095
1772458513068792600,8.58979248046875,0.01466076634824276,-0.042760565876960754,0.16737708449363708
1772458513078772200,8.599772216796875,0.021991148591041565,-0.042760565876960754,0.1918116807937622
1772458513088808400,8.609808349609375,0.028099801391363144,-0.04398229718208313,0.2321287989616394
1772458513098817800,8.61981787109375,0.03420845419168472,-0.045204028487205505,0.2638937830924988
1772458513108865500,8.629865478515624,0.042760565876960754,-0.04764748737215996,0.27488934993743896
1772458513118848000,8.639847900390626,0.04764748737215996,-0.051312681287527084,0.2577851414680481
1772458513128876800,8.649876708984374,0.05009094998240471,-0.051312681287527084,0.22968533635139465
1772458513138883600,8.659883544921875,0.04642575979232788,-0.05009094998240471,0.22113321721553802
1772458513158911500,8.679911376953125,0.04398229718208313,-0.036651913076639175,0.21868975460529327
1772458513168942000,8.689942138671874,0.039095375686883926,-0.028099801391363144,0.19547687470912933
1772458513178952200,8.6999521484375,0.03176499158143997,-0.01466076634824276,0.15393804013729095
1772458513188998000,8.709997802734375,0.021991148591041565,0.00733038317412138,0.08185594528913498
1772458513198980600,8.719980712890624,0.010995574295520782,0.01710422709584236,0.036651913076639175
1772458513209043200,8.730043212890624,0.00366519158706069,0.021991148591041565,-0.009773843921720982
1772458513219027500,8.74002734375,-0.0012217304902151227,0.021991148591041565,-0.045204028487205505
1772458513229087500,8.75008740234375,-0.006108652334660292,0.02321287989616394,-0.0659734457731247
1772458513249407000,8.770406982421875,-0.004886921960860491,0.018325956538319588,-0.0659734457731247
1772458513279140900,8.800140869140625,0.00366519158706069,0.009773843921720982,-0.04642575979232788
1772458513289335000,8.8103349609375,0.00733038317412138,0.006108652334660292,-0.04153883829712868
1772458513299190500,8.8201904296875,0.010995574295520782,0.004886921960860491,-0.04398229718208313
1772458513309213400,8.83021337890625,0.01466076634824276,0.00366519158706069,-0.05253441259264946
1772458513319203300,8.840203369140625,0.018325956538319588,0.0024434609804302454,-0.059864792972803116
1772458513329259000,8.850259033203125,0.021991148591041565,0,-0.05864306539297104
1772458513339268000,8.86026806640625,0.024434609338641167,-0.004886921960860491,-0.051312681287527084
1772458513349608700,8.870608642578125,0.02687807008624077,-0.00733038317412138,-0.045204028487205505
1772458513359294000,8.8802939453125,0.025656340643763542,-0.00855211354792118,-0.036651913076639175
1772458513379347500,8.900347412109374,0.024434609338641167,-0.00855211354792118,-0.01710422709584236
1772458513389375200,8.910375244140624,0.02076941914856434,-0.00733038317412138,-0.012217304669320583
1772458513399373800,8.920373779296876,0.018325956538319588,-0.00733038317412138,-0.01466076634824276
1772458513409428500,8.930428466796876,0.015882495790719986,-0.004886921960860491,-0.02076941914856434
1772458513419416000,8.940416015625,0.012217304669320583,-0.004886921960860491,-0.02687807008624077
1772458513429447000,8.950447021484376,0.00855211354792118,-0.00855211354792118,-0.03176499158143997
1772458513449814300,8.970814208984375,0,-0.012217304669320583,-0.025656340643763542
1772458513459494100,8.980494140625,-0.004886921960860491,-0.012217304669320583,-0.019547687843441963
1772458513489573000,9.010572998046875,-0.015882495790719986,-0.01466076634824276,-0.0354301854968071
1772458513499551200,9.02055126953125,-0.018325956538319588,-0.010995574295520782,-0.039095375686883926
1772458513509569500,9.030569580078126,-0.019547687843441963,-0.012217304669320583,-0.039095375686883926
1772458513519565000,9.04056494140625,-0.021991148591041565,-0.013439035043120384,-0.025656340643763542
1772458513529616400,9.050616455078124,-0.021991148591041565,-0.018325956538319588,-0.018325956538319588
1772458513539602000,9.060601806640625,-0.021991148591041565,-0.02076941914856434,-0.00733038317412138
1772458513549932800,9.070932861328124,-0.019547687843441963,-0.021991148591041565,0.004886921960860491
1772458513559616000,9.080615966796875,-0.01710422709584236,-0.02321287989616394,0.01466076634824276
1772458513599692000,9.120692138671876,-0.006108652334660292,-0.019547687843441963,0.010995574295520782
1772458513609749500,9.13074951171875,-0.0024434609804302454,-0.018325956538319588,0.009773843921720982
1772458513630801700,9.1518017578125,0,-0.00855211354792118,0.0012217304902151227
1772458513640798200,9.161798095703125,0.0024434609804302454,-0.006108652334660292,-0.004886921960860491
1772458513651157500,9.172157470703125,0.004886921960860491,-0.009773843921720982,-0.009773843921720982
1772458513660839400,9.18183935546875,0.006108652334660292,-0.013439035043120384,-0.010995574295520782
1772458513670863400,9.19186328125,0.009773843921720982,-0.01466076634824276,-0.010995574295520782
1772458513680855800,9.201855712890625,0.010995574295520782,-0.013439035043120384,-0.00733038317412138
1772458513700890600,9.221890625,0.013439035043120384,-0.01466076634824276,0.004886921960860491
1772458513710925600,9.231925537109374,0.01710422709584236,-0.015882495790719986,0.010995574295520782
1772458513720927700,9.241927734375,0.019547687843441963,-0.01710422709584236,0.015882495790719986
1772458513730974500,9.251974365234375,0.024434609338641167,-0.013439035043120384,0.01466076634824276
1772458513740975900,9.261975830078125,0.02932153269648552,-0.013439035043120384,0.004886921960860491
1772458513751310300,9.272310302734375,0.036651913076639175,-0.00855211354792118,0
1772458513760996900,9.281996826171875,0.04153883829712868,-0.00733038317412138,-0.0012217304902151227
1772458513771038500,9.29203857421875,0.045204028487205505,-0.004886921960860491,0.0012217304902151227
1772458513781009200,9.302009033203126,0.04886921867728233,-0.00366519158706069,0.004886921960860491
1772458513791023400,9.3120234375,0.051312681287527084,-0.0012217304902151227,0.012217304669320583
1772458513801012000,9.322011962890626,0.05253441259264946,-0.00855211354792118,0.015882495790719986
1772458513811051800,9.3320517578125,0.05375614017248154,-0.00855211354792118,0.018325956538319588
1772458513821027300,9.34202734375,0.05253441259264946,-0.01710422709584236,0.039095375686883926
1772458513831052000,9.352052001953124,0.05253441259264946,-0.01710422709584236,0.04886921867728233
1772458513841047300,9.36204736328125,0.051312681287527084,-0.01710422709584236,0.05864306539297104
1772458513851403000,9.372403076171874,0.04764748737215996,-0.025656340643763542,0.06108652427792549
1772458513861093000,9.382093017578125,0.04398229718208313,-0.03298672288656235,0.05742133408784866
1772458513871127300,9.392127197265625,0.039095375686883926,-0.03787364438176155,0.06230825558304787
1772458513881128000,9.4021279296875,0.0354301854968071,-0.04153883829712868,0.059864792972803116
1772458513891176700,9.4121767578125,0.02932153269648552,-0.042760565876960754,0.05864306539297104
1772458513901159700,9.42215966796875,0.02321287989616394,-0.042760565876960754,0.05864306539297104
1772458513911200800,9.43220068359375,0.013439035043120384,-0.04764748737215996,0.05742133408784866
1772458513921200600,9.44220068359375,0.00855211354792118,-0.05009094998240471,0.06352998316287994
1772458513931247000,9.4522470703125,0.006108652334660292,-0.05009094998240471,0.06719517707824707
1772458513941241600,9.46224169921875,0,-0.05009094998240471,0.0757472887635231
1772458513951911000,9.472910888671874,-0.0024434609804302454,-0.04642575979232788,0.08796459436416626
1772458513961278000,9.48227783203125,-0.00366519158706069,-0.042760565876960754,0.09040805697441101
1772458513971329800,9.492329833984375,-0.00733038317412138,-0.03787364438176155,0.1014036312699318
1772458513981350400,9.502350341796875,-0.00733038317412138,-0.03298672288656235,0.10873401165008545
1772458513991382300,9.51238232421875,-0.004886921960860491,-0.02932153269648552,0.11484266817569733
1772458514001393400,9.522393310546875,-0.00366519158706069,-0.02687807008624077,0.11850785464048386
1772458514021419800,9.542419677734374,-0.00366519158706069,-0.024434609338641167,0.10506882518529892
1772458514032049400,9.55304931640625,-0.0024434609804302454,-0.021991148591041565,0.09529497474431992
1772458514041434600,9.5624345703125,-0.0024434609804302454,-0.01710422709584236,0.09407325088977814
1772458514053422300,9.57442236328125,-0.0012217304902151227,-0.018325956538319588,0.08429940044879913
1772458514061493000,9.582492919921876,-0.00366519158706069,-0.01710422709584236,0.07941248267889023
1772458514071516700,9.5925166015625,-0.010995574295520782,-0.01710422709584236,0.08918632566928864
1772458514081508900,9.6025087890625,-0.01466076634824276,-0.019547687843441963,0.1014036312699318
1772458514091556600,9.612556640625,-0.019547687843441963,-0.02321287989616394,0.1111774742603302
1772458514101536300,9.622536376953125,-0.02076941914856434,-0.028099801391363144,0.11239920556545258
1772458514121545200,9.642545166015625,-0.025656340643763542,-0.03787364438176155,0.1258382350206375
1772458514131599000,9.65259912109375,-0.024434609338641167,-0.0403171069920063,0.13316862285137177
1772458514141605400,9.66260546875,-0.021991148591041565,-0.039095375686883926,0.14049901068210602
1772458514151943200,9.672943115234375,-0.021991148591041565,-0.0403171069920063,0.1417207419872284
1772458514161634600,9.682634521484376,-0.019547687843441963,-0.03420845419168472,0.14538592100143433
1772458514171681500,9.692681640625,-0.01466076634824276,-0.03420845419168472,0.1466076523065567
1772458514181657600,9.70265771484375,-0.012217304669320583,-0.03420845419168472,0.14782938361167908
1772458514192283100,9.713283203125,-0.010995574295520782,-0.03298672288656235,0.15271630883216858
1772458514201668000,9.722668212890625,-0.00733038317412138,-0.03176499158143997,0.15271630883216858
1772458514214204700,9.73520458984375,-0.004886921960860491,-0.030543262138962746,0.15027284622192383
1772458514231730200,9.752730224609374,-0.00733038317412138,-0.0354301854968071,0.13805554807186127
1772458514241734700,9.762734619140625,-0.00855211354792118,-0.039095375686883926,0.12828169763088226
1772458514252100600,9.7731005859375,-0.010995574295520782,-0.042760565876960754,0.12095131725072861
1772458514261776000,9.78277587890625,-0.01466076634824276,-0.0403171069920063,0.11362093687057495
1772458514271796200,9.792796142578124,-0.018325956538319588,-0.039095375686883926,0.10506882518529892
1772458514281789700,9.802789794921875,-0.02076941914856434,-0.03787364438176155,0.09529497474431992
1772458514291855400,9.81285546875,-0.02321287989616394,-0.03787364438176155,0.08429940044879913
1772458514301829400,9.822829345703125,-0.024434609338641167,-0.039095375686883926,0.07696902006864548
1772458514311847400,9.832847412109375,-0.024434609338641167,-0.036651913076639175,0.07452555745840073
1772458514321832200,9.842832275390625,-0.025656340643763542,-0.0354301854968071,0.0708603709936142
1772458514341874000,9.8628740234375,-0.02321287989616394,-0.030543262138962746,0.059864792972803116
1772458514352818200,9.873818115234375,-0.021991148591041565,-0.028099801391363144,0.05253441259264946
1772458514361902600,9.882902587890625,-0.02321287989616394,-0.028099801391363144,0.045204028487205505
1772458514373593300,9.89459326171875,-0.021991148591041565,-0.02687807008624077,0.039095375686883926
1772458514381956900,9.902956787109375,-0.021991148591041565,-0.02321287989616394,0.03420845419168472
1772458514391988200,9.91298828125,-0.02076941914856434,-0.018325956538319588,0.02932153269648552
1772458514401972500,9.922972412109376,-0.021991148591041565,-0.01710422709584236,0.02321287989616394
1772458514412020000,9.93302001953125,-0.021991148591041565,-0.018325956538319588,0.01710422709584236
1772458514421996800,9.942996826171875,-0.02321287989616394,-0.019547687843441963,0.01466076634824276
1772458514452376000,9.9733759765625,-0.024434609338641167,-0.015882495790719986,0.013439035043120384
1772458514462026500,9.983026611328125,-0.02321287989616394,-0.013439035043120384,0.015882495790719986
1772458514472034300,9.993034423828124,-0.025656340643763542,-0.021991148591041565,0.018325956538319588
1772458514482120700,10.00312060546875,-0.02687807008624077,-0.025656340643763542,0.02076941914856434
1772458514492057600,10.0130576171875,-0.028099801391363144,-0.02321287989616394,0.025656340643763542
1772458514502023000,10.02302294921875,-0.02932153269648552,-0.019547687843441963,0.028099801391363144
1772458514512640300,10.03364013671875,-0.02932153269648552,-0.01466076634824276,0.03420845419168472
1772458514522012700,10.0430126953125,-0.030543262138962746,-0.015882495790719986,0.03420845419168472
1772458514534562300,10.055562255859375,-0.02932153269648552,-0.01466076634824276,0.03420845419168472
1772458514572073700,10.09307373046875,-0.02321287989616394,-0.006108652334660292,0.042760565876960754
1772458514582053000,10.10305322265625,-0.019547687843441963,-0.00733038317412138,0.045204028487205505
1772458514592061400,10.1130615234375,-0.019547687843441963,-0.00855211354792118,0.04764748737215996
1772458514602036200,10.1230361328125,-0.019547687843441963,-0.010995574295520782,0.04764748737215996
1772458514612063200,10.133063232421875,-0.02076941914856434,-0.00855211354792118,0.04764748737215996
1772458514622049300,10.14304931640625,-0.019547687843441963,-0.006108652334660292,0.045204028487205505
1772458514632067300,10.1530673828125,-0.02076941914856434,-0.0012217304902151227,0.04398229718208313
1772458514642043100,10.163043212890624,-0.018325956538319588,0.0012217304902151227,0.04153883829712868
1772458514672656400,10.193656494140624,-0.01466076634824276,-0.00366519158706069,0.04398229718208313
1772458514682027000,10.203027099609375,-0.01466076634824276,-0.004886921960860491,0.042760565876960754
1772458514693651000,10.21465087890625,-0.01466076634824276,-0.00855211354792118,0.04764748737215996
1772458514702045000,10.223044921875,-0.01466076634824276,-0.010995574295520782,0.051312681287527084
1772458514712048600,10.233048583984376,-0.012217304669320583,-0.0012217304902151227,0.05497787147760391
1772458514722027300,10.24302734375,-0.010995574295520782,0.004886921960860491,0.051312681287527084
1772458514732061200,10.253061279296874,-0.009773843921720982,0.004886921960860491,0.04642575979232788
1772458514742029000,10.263029052734375,-0.009773843921720982,-0.0024434609804302454,0.04642575979232788
1772458514752340000,10.273340087890626,-0.00855211354792118,0.0012217304902151227,0.04764748737215996
1772458514792011000,10.313010986328125,-0.009773843921720982,0,0.02687807008624077
1772458514801994500,10.322994384765625,-0.00733038317412138,0.0012217304902151227,0.02321287989616394
1772458514812025300,10.333025390625,-0.006108652334660292,0.0024434609804302454,0.02321287989616394
1772458514822008800,10.3430087890625,-0.00366519158706069,0.00366519158706069,0.02321287989616394
1772458514832630000,10.353630126953124,-0.00366519158706069,0.0012217304902151227,0.024434609338641167
1772458514842006800,10.3630068359375,-0.0024434609804302454,-0.0012217304902151227,0.024434609338641167
1772458514854831400,10.375831298828125,-0.0012217304902151227,-0.0024434609804302454,0.02321287989616394
1772458514872053200,10.39305322265625,-0.0012217304902151227,0,0.02076941914856434
1772458514882038500,10.40303857421875,0.0012217304902151227,0.0012217304902151227,0.01710422709584236
1772458514892067000,10.413067138671876,0.0012217304902151227,0,0.010995574295520782
1772458514902044700,10.423044677734374,0.0024434609804302454,0,0.006108652334660292
1772458514912064500,10.433064453125,0.0012217304902151227,0.0012217304902151227,0.004886921960860491
1772458514922065700,10.443065673828125,0.0024434609804302454,-0.0012217304902151227,0.0012217304902151227
1772458514932099300,10.453099365234374,0.00366519158706069,-0.0012217304902151227,0.0012217304902151227
1772458514942092300,10.46309228515625,0.00366519158706069,-0.0012217304902151227,0
1772458514952411600,10.47341162109375,0.00366519158706069,-0.0012217304902151227,0
1772458514962077400,10.483077392578124,0.004886921960860491,0,0.0012217304902151227
1772458514992686000,10.51368603515625,0.00733038317412138,0,-0.00733038317412138
1772458515002054700,10.5230546875,0.00733038317412138,0,-0.00733038317412138
1772458515013717800,10.5347177734375,0.00855211354792118,-0.0012217304902151227,-0.009773843921720982
1772458515022051000,10.543051025390625,0.009773843921720982,-0.0024434609804302454,-0.010995574295520782
1772458515032072200,10.553072265625,0.00855211354792118,-0.0024434609804302454,-0.00855211354792118
1772458515042063400,10.5630634765625,0.00855211354792118,-0.0024434609804302454,-0.00855211354792118
1772458515052438300,10.573438232421875,0.00733038317412138,-0.00366519158706069,-0.00733038317412138
1772458515062147000,10.58314697265625,0.006108652334660292,-0.004886921960860491,-0.004886921960860491
1772458515092185000,10.61318505859375,0.0024434609804302454,-0.00855211354792118,0
1772458515102142200,10.62314208984375,0.0024434609804302454,-0.00855211354792118,0
1772458515112164400,10.633164306640625,0.0024434609804302454,-0.006108652334660292,0
1772458515122133200,10.64313330078125,0.00366519158706069,-0.00733038317412138,0.00366519158706069
1772458515132151000,10.653151123046875,0.0024434609804302454,-0.006108652334660292,0.00366519158706069
1772458515142109400,10.663109375,0.004886921960860491,-0.006108652334660292,0.00366519158706069
1772458515153025000,10.67402490234375,0.006108652334660292,-0.00366519158706069,0.004886921960860491
1772458515162134500,10.683134521484375,0.006108652334660292,-0.0024434609804302454,0.006108652334660292
1772458515174686500,10.6956865234375,0.00733038317412138,-0.0024434609804302454,0.004886921960860491
1772458515212284400,10.733284423828126,0.00733038317412138,0.004886921960860491,-0.00733038317412138
1772458515222243300,10.743243408203124,0.00733038317412138,0.0024434609804302454,-0.010995574295520782
1772458515232238000,10.753238037109375,0.006108652334660292,0.0012217304902151227,-0.019547687843441963
1772458515242220800,10.763220703125,0.004886921960860491,0.0012217304902151227,-0.024434609338641167
1772458515252597800,10.77359765625,0.00366519158706069,0.0012217304902151227,-0.02687807008624077
1772458515262233000,10.783233154296875,0.0024434609804302454,0.00366519158706069,-0.028099801391363144
1772458515272246500,10.79324658203125,0.0024434609804302454,0.006108652334660292,-0.03298672288656235
1772458515282220300,10.80322021484375,0.00366519158706069,0.010995574295520782,-0.045204028487205505
1772458515312863000,10.833863037109374,0.006108652334660292,0.006108652334660292,-0.03298672288656235
1772458515322231600,10.8432314453125,0.004886921960860491,0.00855211354792118,-0.030543262138962746
1772458515333857800,10.85485791015625,0.004886921960860491,0.009773843921720982,-0.0403171069920063
1772458515342227700,10.863227783203126,0.00733038317412138,0.010995574295520782,-0.059864792972803116
1772458515352578000,10.873578125,0.0024434609804302454,0.012217304669320583,-0.05497787147760391
1772458515362243300,10.883243408203125,0.00366519158706069,0.010995574295520782,-0.04153883829712868
1772458515372306700,10.893306640625,0.004886921960860491,0.012217304669320583,-0.03420845419168472
1772458515382305500,10.903305419921875,0.0024434609804302454,0.012217304669320583,-0.036651913076639175
1772458515402376200,10.923376220703124,0,0.01710422709584236,-0.036651913076639175
1772458515412411000,10.933410888671874,0.0024434609804302454,0.01466076634824276,-0.030543262138962746
1772458515422355500,10.94335546875,0.0012217304902151227,0.013439035043120384,-0.025656340643763542
1772458515432371700,10.953371826171875,0.0024434609804302454,0.013439035043120384,-0.02321287989616394
1772458515442372000,10.9633720703125,0.0024434609804302454,0.012217304669320583,-0.02321287989616394
1772458515452744200,10.973744140625,0.0012217304902151227,0.012217304669320583,-0.021991148591041565
1772458515462386000,10.983385986328125,0,0.009773843921720982,-0.018325956538319588
1772458515473012500,10.994012451171875,0,0.00733038317412138,-0.02076941914856434
1772458515482387000,11.003386962890625,-0.0024434609804302454,0.006108652334660292,-0.025656340643763542
1772458515494907100,11.0159072265625,-0.00366519158706069,-0.0012217304902151227,-0.02687807008624077
1772458515512418300,11.033418212890625,-0.006108652334660292,-0.00733038317412138,-0.013439035043120384
1772458515522403300,11.0434033203125,-0.00733038317412138,-0.00855211354792118,-0.0012217304902151227
1772458515532443000,11.05344287109375,-0.004886921960860491,-0.0012217304902151227,0.012217304669320583
1772458515542394000,11.06339404296875,-0.00366519158706069,-0.0024434609804302454,0.018325956538319588
1772458515552727600,11.0737275390625,-0.00366519158706069,-0.013439035043120384,0.02076941914856434
1772458515562399200,11.083399169921876,-0.00366519158706069,-0.018325956538319588,0.02687807008624077
1772458515572439600,11.093439453125,-0.004886921960860491,-0.01710422709584236,0.028099801391363144
1772458515582396000,11.10339599609375,-0.004886921960860491,-0.01466076634824276,0.028099801391363144
1772458515592439800,11.113439697265624,-0.004886921960860491,-0.012217304669320583,0.02687807008624077
1772458515602442800,11.12344287109375,-0.006108652334660292,-0.009773843921720982,0.03298672288656235
1772458515633075000,11.154074951171875,-0.00366519158706069,-0.00733038317412138,0.05253441259264946
1772458515642441700,11.163441650390626,0.0012217304902151227,-0.00366519158706069,0.05497787147760391
1772458515654429700,11.1754296875,0.004886921960860491,-0.00366519158706069,0.05375614017248154
1772458515662500600,11.18350048828125,0.00733038317412138,-0.004886921960860491,0.05742133408784866
1772458515672540700,11.193540771484376,0.012217304669320583,-0.00855211354792118,0.059864792972803116
1772458515682525200,11.203525146484376,0.018325956538319588,-0.010995574295520782,0.05864306539297104
1772458515692574200,11.21357421875,0.02076941914856434,-0.010995574295520782,0.05864306539297104
1772458515702517000,11.22351708984375,0.021991148591041565,-0.01710422709584236,0.05253441259264946
1772458515732529000,11.25352880859375,0.019547687843441963,-0.021991148591041565,0.04153883829712868
1772458515742496300,11.263496337890626,0.01710422709584236,-0.025656340643763542,0.03420845419168472
1772458515752828400,11.273828369140626,0.018325956538319588,-0.024434609338641167,0.02687807008624077
1772458515762487600,11.283487548828125,0.018325956538319588,-0.028099801391363144,0.019547687843441963
1772458515772539600,11.29353955078125,0.01710422709584236,-0.03298672288656235,0.015882495790719986
1772458515782510800,11.3035107421875,0.015882495790719986,-0.039095375686883926,0.018325956538319588
1772458515793136000,11.31413623046875,0.015882495790719986,-0.04398229718208313,0.02321287989616394
1772458515802492700,11.32349267578125,0.012217304669320583,-0.051312681287527084,0.03176499158143997
1772458515815016700,11.3360166015625,0.009773843921720982,-0.05619960278272629,0.0403171069920063
1772458515832561000,11.353560791015624,0.0024434609804302454,-0.05619960278272629,0.051312681287527084
1772458515842485800,11.36348583984375,0.0024434609804302454,-0.04886921867728233,0.05864306539297104
1772458515852829700,11.37382958984375,0.0024434609804302454,-0.045204028487205505,0.05742133408784866
1772458515862462700,11.383462646484375,0.0012217304902151227,-0.04398229718208313,0.06108652427792549
1772458515872496400,11.393496337890625,0.006108652334660292,-0.0403171069920063,0.05864306539297104
1772458515882507800,11.4035078125,0.00855211354792118,-0.036651913076639175,0.05009094998240471
1772458515892541700,11.413541748046875,0.009773843921720982,-0.03420845419168472,0.04153883829712868
1772458515902504200,11.423504150390626,0.00855211354792118,-0.030543262138962746,0.02932153269648552
1772458515912556000,11.43355615234375,0.00855211354792118,-0.02932153269648552,0.009773843921720982
1772458515942575000,11.4635751953125,-0.0024434609804302454,-0.00366519158706069,-0.042760565876960754
1772458515953510100,11.47451025390625,0.00733038317412138,0.015882495790719986,-0.09651670604944229
1772458515962574600,11.48357470703125,0.02076941914856434,0.02076941914856434,-0.12461651116609573
1772458515974198300,11.4951982421875,0.0403171069920063,0.02321287989616394,-0.12950342893600464
1772458515982574000,11.503573974609376,0.06475171446800232,0.02932153269648552,-0.1258382350206375
1772458515992592100,11.513592041015626,0.08918632566928864,0.03298672288656235,-0.1270599663257599
1772458516002558500,11.523558349609376,0.10995574295520782,0.028099801391363144,-0.12461651116609573
1772458516012586800,11.533586669921876,0.12339477986097336,0.015882495790719986,-0.11362093687057495
1772458516022584600,11.54358447265625,0.1319468915462494,0.006108652334660292,-0.09773843735456467
1772458516042608400,11.5636083984375,0.1270599663257599,0.006108652334660292,-0.07941248267889023
1772458516052955600,11.57395556640625,0.11239920556545258,0.00733038317412138,-0.08429940044879913
1772458516062599700,11.583599609375,0.1014036312699318,0.0024434609804302454,-0.10384709388017654
1772458516072623000,11.593623046875,0.08674286305904388,-0.0012217304902151227,-0.1270599663257599
1772458516082590000,11.60358984375,0.07452555745840073,-0.0024434609804302454,-0.15393804013729095
1772458516092621300,11.613621337890624,0.05864306539297104,-0.0024434609804302454,-0.19303341209888458
1772458516102566100,11.623566162109375,0.05375614017248154,-0.00366519158706069,-0.2480112910270691
1772458516113192000,11.63419189453125,0.04886921867728233,0.00366519158706069,-0.2687807083129883
1772458516122567700,11.643567626953125,0.04886921867728233,0.012217304669320583,-0.2675589919090271
1772458516135092500,11.656092529296876,0.05619960278272629,0.028099801391363144,-0.24923302233219147
1772458516152922000,11.673922119140625,0.07696902006864548,0.04764748737215996,-0.23335053026676178
1772458516162580200,11.683580322265625,0.09162978827953339,0.05864306539297104,-0.23090706765651703
1772458516172624000,11.693623779296875,0.10873401165008545,0.06475171446800232,-0.2321287989616394
1772458516182568200,11.703568115234376,0.12217304855585098,0.06230825558304787,-0.2370157092809677
1772458516192586000,11.7135859375,0.12217304855585098,0.059864792972803116,-0.21502456068992615
1772458516202561500,11.7235615234375,0.12095131725072861,0.06352998316287994,-0.15515977144241333
1772458516212644900,11.733644775390625,0.12217304855585098,0.06475171446800232,-0.09773843735456467
1772458516222628900,11.74362890625,0.1160643994808197,0.05497787147760391,-0.08429940044879913
1772458516232643600,11.7536435546875,0.10384709388017654,0.04398229718208313,-0.09407325088977814
1772458516242610400,11.7636103515625,0.08796459436416626,0.03298672288656235,-0.1062905490398407
1772458516273278200,11.7942783203125,0.02932153269648552,0.01466076634824276,-0.17470745742321014
1772458516282623200,11.803623291015626,0.013439035043120384,0.021991148591041565,-0.19547687470912933
1772458516294291000,11.815291015625,-0.0012217304902151227,0.02687807008624077,-0.21013765037059784
1772458516302638000,11.82363818359375,-0.012217304669320583,0.03420845419168472,-0.20402899384498596
1772458516312684300,11.833684326171875,-0.013439035043120384,0.04153883829712868,-0.17959438264369965
1772458516322666000,11.843666015625,-0.009773843921720982,0.04398229718208313,-0.14782938361167908
1772458516332714500,11.853714599609376,-0.00366519158706069,0.0403171069920063,-0.11972958594560623
1772458516342664000,11.863663818359376,0.00733038317412138,0.039095375686883926,-0.09651670604944229
1772458516353001200,11.874001220703125,0.025656340643763542,0.030543262138962746,-0.07696902006864548
1772458516372703500,11.893703369140624,0.02932153269648552,0.01710422709584236,-0.06963863968849182
1772458516382643500,11.9036435546875,0.021991148591041565,0.00733038317412138,-0.05375614017248154
1772458516392662000,11.913662109375,0.012217304669320583,0.004886921960860491,-0.036651913076639175
1772458516402623500,11.92362353515625,-0.00366519158706069,-0.0012217304902151227,-0.02932153269648552
1772458516412679400,11.933679443359376,-0.018325956538319588,-0.0012217304902151227,-0.028099801391363144
1772458516422624000,11.9436240234375,-0.03298672288656235,0.0012217304902151227,-0.0403171069920063
1772458516433246200,11.95424609375,-0.04642575979232788,-0.0024434609804302454,-0.05742133408784866
1772458516442601500,11.9636015625,-0.06108652427792549,-0.00733038317412138,-0.06963863968849182
1772458516455425800,11.97642578125,-0.06963863968849182,-0.004886921960860491,-0.07941248267889023
1772458516482601200,12.003601318359374,-0.08185594528913498,0.006108652334660292,-0.08185594528913498
1772458516492644000,12.01364404296875,-0.07452555745840073,0.004886921960860491,-0.0708603709936142
1772458516502600000,12.023599853515625,-0.07208210229873657,0.009773843921720982,-0.045204028487205505
1772458516512640000,12.033639892578124,-0.06841690838336945,0.01710422709584236,-0.012217304669320583
1772458516522614300,12.0436142578125,-0.06230825558304787,0.01710422709584236,0.010995574295520782
1772458516532658000,12.053657958984376,-0.05497787147760391,0.019547687843441963,0.030543262138962746
1772458516542632200,12.063632080078126,-0.04764748737215996,0.02321287989616394,0.042760565876960754
1772458516552964900,12.07396484375,-0.04153883829712868,0.025656340643763542,0.06230825558304787
1772458516562642200,12.08364208984375,-0.036651913076639175,0.02932153269648552,0.08185594528913498
1772458516582638300,12.103638427734374,-0.03420845419168472,0.028099801391363144,0.10018189996480942
1772458516593274000,12.114274169921876,-0.03420845419168472,0.024434609338641167,0.1014036312699318
1772458516602642000,12.123641845703125,-0.036651913076639175,0.02321287989616394,0.10018189996480942
1772458516614277600,12.135277587890625,-0.042760565876960754,0.019547687843441963,0.09040805697441101
1772458516625678600,12.1466787109375,-0.04886921867728233,0.015882495790719986,0.07696902006864548
1772458516635706600,12.15670654296875,-0.06230825558304787,0.01710422709584236,0.0806342139840126
1772458516645671200,12.166671142578124,-0.06963863968849182,0.01710422709584236,0.0806342139840126
1772458516656029000,12.17702880859375,-0.07452555745840073,0.018325956538319588,0.07452555745840073
1772458516665684700,12.186684814453125,-0.08552113175392151,0.01466076634824276,0.06719517707824707
1772458516695701800,12.21670166015625,-0.08674286305904388,-0.004886921960860491,0.05009094998240471
1772458516705656800,12.22665673828125,-0.08796459436416626,-0.00855211354792118,0.05253441259264946
1772458516715672300,12.23667236328125,-0.08918632566928864,-0.015882495790719986,0.06352998316287994
1772458516725634000,12.246634033203126,-0.08674286305904388,-0.015882495790719986,0.06352998316287994
1772458516735666400,12.25666650390625,-0.08552113175392151,-0.00733038317412138,0.05497787147760391
1772458516745613300,12.26661328125,-0.07819075137376785,-0.0012217304902151227,0.039095375686883926
1772458516756577800,12.277577880859376,-0.06841690838336945,0,0.030543262138962746
1772458516765633800,12.2866337890625,-0.06108652427792549,-0.00366519158706069,0.03420845419168472
1772458516778169600,12.299169677734374,-0.051312681287527084,-0.00855211354792118,0.0354301854968071
1772458516795701200,12.316701171875,-0.0354301854968071,-0.006108652334660292,0.04642575979232788
1772458516805662700,12.326662841796875,-0.030543262138962746,-0.00855211354792118,0.04642575979232788
1772458516815711000,12.3367109375,-0.02687807008624077,-0.00855211354792118,0.0403171069920063
1772458516825671400,12.34667138671875,-0.028099801391363144,-0.0012217304902151227,0.030543262138962746
1772458516835701200,12.356701171875,-0.03176499158143997,-0.0012217304902151227,0.01710422709584236
1772458516845684200,12.366684326171875,-0.03298672288656235,0.0012217304902151227,0.0024434609804302454
1772458516856041500,12.37704150390625,-0.03420845419168472,0.0012217304902151227,-0.019547687843441963
1772458516865691100,12.386691162109376,-0.0354301854968071,0.006108652334660292,-0.03787364438176155
1772458516875718700,12.39671875,-0.03420845419168472,0.004886921960860491,-0.05009094998240471
1772458516895732700,12.416732666015625,-0.02932153269648552,0.0024434609804302454,-0.06719517707824707
1772458516905685500,12.426685546875,-0.024434609338641167,0,-0.08185594528913498
1772458516916312800,12.437312744140625,-0.02076941914856434,-0.004886921960860491,-0.09162978827953339
1772458516925674000,12.446674072265624,-0.01710422709584236,-0.00366519158706069,-0.10018189996480942
1772458516937352200,12.458352294921875,-0.013439035043120384,-0.004886921960860491,-0.10751228034496307
1772458516945697300,12.466697265625,-0.00855211354792118,-0.004886921960860491,-0.11362093687057495
1772458516956028400,12.4770283203125,0,-0.00855211354792118,-0.12950342893600464
1772458516965677800,12.486677734375,0.004886921960860491,-0.009773843921720982,-0.1368338167667389
1772458516975710500,12.49671044921875,0.010995574295520782,-0.012217304669320583,-0.1466076523065567
1772458516985656800,12.50665673828125,0.01466076634824276,-0.024434609338641167,-0.15515977144241333
1772458517005651000,12.52665087890625,0.01466076634824276,-0.05253441259264946,-0.2028072625398636
1772458517015708400,12.53670849609375,0.009773843921720982,-0.06352998316287994,-0.20036379992961884
1772458517025657000,12.546656982421876,0.004886921960860491,-0.07208210229873657,-0.21502456068992615
1772458517035812600,12.5568125,0.0024434609804302454,-0.07208210229873657,-0.22968533635139465
1772458517045664300,12.566664306640625,0.00366519158706069,-0.07941248267889023,-0.26511552929878235
1772458517056001500,12.57700146484375,0.00366519158706069,-0.10506882518529892,-0.2834414839744568
1772458517065663500,12.58666357421875,0,-0.14049901068210602,-0.28955012559890747
1772458517076327200,12.5973271484375,0.0012217304902151227,-0.16249015927314758,-0.27488934993743896
1772458517085668900,12.6066689453125,0.0024434609804302454,-0.17592918872833252,-0.2480112910270691
1772458517098184400,12.619184326171874,0.00855211354792118,-0.19792033731937408,-0.20036379992961884
1772458517115738000,12.636738037109374,0.01466076634824276,-0.24434609711170197,-0.12339477986097336
1772458517125688600,12.6466884765625,0.01710422709584236,-0.26633724570274353,-0.09162978827953339
1772458517135731500,12.6567314453125,0.021991148591041565,-0.2834414839744568,-0.0757472887635231
1772458517145707300,12.666707275390625,0.02076941914856434,-0.29565876722335815,-0.0403171069920063
1772458517156071200,12.6770712890625,0.018325956538319588,-0.3066543638706207,0.02321287989616394
1772458517165709600,12.68670947265625,0.015882495790719986,-0.31520646810531616,0.1014036312699318
1772458517175734800,12.69673486328125,0.010995574295520782,-0.3274237811565399,0.17104226350784302
1772458517185713700,12.706713623046875,0.006108652334660292,-0.32986724376678467,0.21502456068992615
1772458517195765200,12.71676513671875,-0.004886921960860491,-0.3225368559360504,0.2565633952617645
1772458517215729400,12.7367294921875,-0.04764748737215996,-0.3188716471195221,0.3323107063770294
1772458517225697000,12.746697021484374,-0.08185594528913498,-0.3335324227809906,0.40194934606552124
1772458517236357600,12.757357666015626,-0.13561208546161652,-0.32620203495025635,0.5363397002220154
1772458517245695700,12.76669580078125,-0.16859880089759827,-0.28466320037841797,0.6389650702476501
1772458517257608700,12.778608642578124,-0.1918116807937622,-0.23457226157188416,0.7244861721992493
1772458517265705000,12.786705078125,-0.2076941877603531,-0.19303341209888458,0.7806857824325562
1772458517275756300,12.79675634765625,-0.21502456068992615,-0.16982053220272064,0.8185594081878662
1772458517285715500,12.806715576171875,-0.21380282938480377,-0.14905111491680145,0.8197811841964722
1772458517295730400,12.81673046875,-0.2028072625398636,-0.1258382350206375,0.7782423496246338
1772458517315756300,12.83675634765625,-0.15515977144241333,-0.07208210229873657,0.6133087277412415
1772458517325704700,12.84670458984375,-0.1160643994808197,-0.0403171069920063,0.5229006409645081
1772458517335732200,12.856732177734376,-0.07208210229873657,-0.004886921960860491,0.44226643443107605
1772458517345725000,12.866724853515626,-0.03176499158143997,0.028099801391363144,0.37751471996307373
1772458517356097300,12.87709716796875,0.013439035043120384,0.05864306539297104,0.3237585723400116
1772458517365738000,12.886738037109374,0.03420845419168472,0.06352998316287994,0.29565876722335815
1772458517375900200,12.896900146484375,0.04886921867728233,0.0708603709936142,0.28099802136421204
1772458517385751800,12.906751708984375,0.05009094998240471,0.07452555745840073,0.2724458873271942
1772458517396422000,12.917421875,0.04398229718208313,0.0806342139840126,0.2724458873271942
1772458517418284300,12.9392841796875,0.004886921960860491,0.07330382615327835,0.29077184200286865
1772458517425808000,12.946807861328125,-0.015882495790719986,0.06963863968849182,0.2834414839744568
1772458517435869400,12.956869384765625,-0.03298672288656235,0.06963863968849182,0.2736676335334778
1772458517445832700,12.966832763671874,-0.04642575979232788,0.07941248267889023,0.2638937830924988
1772458517456161300,12.977161376953125,-0.05009094998240471,0.1111774742603302,0.26511552929878235
1772458517465810200,12.98681005859375,-0.042760565876960754,0.13927727937698364,0.26633724570274353
1772458517475868200,12.9968681640625,-0.02932153269648552,0.1466076523065567,0.2687807083129883
1772458517485818000,13.006818115234376,-0.00855211354792118,0.14538592100143433,0.2638937830924988
1772458517495837400,13.01683740234375,0.02687807008624077,0.15515977144241333,0.26145032048225403
1772458517525822000,13.046822021484376,0.1417207419872284,0.24434609711170197,0.17837265133857727
1772458517545827000,13.0668271484375,0.22846360504627228,0.2431243658065796,0.14782938361167908
1772458517556817000,13.07781689453125,0.27488934993743896,0.2480112910270691,0.14294247329235077
1772458517565862400,13.0868623046875,0.31642818450927734,0.26145032048225403,0.1417207419872284
1772458517577531400,13.098531494140625,0.35552358627319336,0.27488934993743896,0.14294247329235077
1772458517595954200,13.1169541015625,0.4141666293144226,0.2834414839744568,0.16371189057826996
1772458517605912800,13.126912841796875,0.4349360466003418,0.2822197377681732,0.17104226350784302
1772458517615945200,13.1369453125,0.44715335965156555,0.2773328125476837,0.17104226350784302
1772458517636004000,13.157004150390625,0.45204028487205505,0.26633724570274353,0.13072516024112701
1772458517645959200,13.166959228515625,0.4447098970413208,0.27122417092323303,0.09529497474431992
1772458517656299500,13.177299560546874,0.43615779280662537,0.27488934993743896,0.05253441259264946
1772458517665986000,13.186986083984374,0.42271876335144043,0.2687807083129883,0.0024434609804302454
1772458517676034600,13.19703466796875,0.40194934606552124,0.2565633952617645,-0.04642575979232788
1772458517686005800,13.207005859375,0.37751471996307373,0.24068090319633484,-0.10873401165008545
1772458517696021800,13.217021728515626,0.34574973583221436,0.2321287989616394,-0.1612684279680252
1772458517706020000,13.22702001953125,0.304210901260376,0.2223549485206604,-0.1966986060142517
1772458517726037500,13.24703759765625,0.2076941877603531,0.19792033731937408,-0.21380282938480377
1772458517738553600,13.2595537109375,0.15027284622192383,0.18325957655906677,-0.21013765037059784
1772458517746066400,13.26706640625,0.08796459436416626,0.16493362188339233,-0.21624629199504852
1772458517756420600,13.277420654296876,-0.013439035043120384,0.12950342893600464,-0.2370157092809677
1772458517766072300,13.287072265625,-0.08674286305904388,0.09285151958465576,-0.24068090319633484
1772458517776079000,13.2970791015625,-0.1612684279680252,0.04886921867728233,-0.23090706765651703
1772458517786067200,13.307067138671876,-0.22968533635139465,0.009773843921720982,-0.2064724564552307
1772458517796099600,13.317099609375,-0.2981022298336029,-0.02321287989616394,-0.18325957655906677
1772458517806059500,13.3270595703125,-0.37140607833862305,-0.0403171069920063,-0.15027284622192383
1772458517816091400,13.33709130859375,-0.4349360466003418,-0.039095375686883926,-0.11728613078594208
1772458517836112000,13.35711181640625,-0.5461135506629944,-0.03298672288656235,-0.05009094998240471
1772458517846075400,13.367075439453124,-0.5962044596672058,-0.03787364438176155,-0.006108652334660292
1772458517856395800,13.377395751953125,-0.6243042945861816,-0.04398229718208313,0.006108652334660292
1772458517866083600,13.38708349609375,-0.6414085030555725,-0.05253441259264946,-0.02321287989616394
1772458517876734200,13.397734130859375,-0.6499606370925903,-0.06230825558304787,-0.08185594528913498
1772458517886087400,13.40708740234375,-0.6524040699005127,-0.0659734457731247,-0.1368338167667389
1772458517897693200,13.418693115234374,-0.6487388610839844,-0.06963863968849182,-0.17348572611808777
1772458517906414600,13.42741455078125,-0.6340781450271606,-0.07696902006864548,-0.18448130786418915
1772458517916148200,13.437148193359375,-0.6145304441452026,-0.0806342139840126,-0.15760323405265808
1772458517926098200,13.44709814453125,-0.5937610268592834,-0.08185594528913498,-0.1062905490398407
1772458517946096600,13.4670966796875,-0.5436700582504272,-0.0806342139840126,0.00855211354792118
1772458517956468200,13.47746826171875,-0.513126790523529,-0.0806342139840126,0.059864792972803116
1772458517966107600,13.487107666015625,-0.4801400899887085,-0.08185594528913498,0.09407325088977814
1772458517976122400,13.497122314453126,-0.4434881806373596,-0.06719517707824707,0.11728613078594208
1772458517986101000,13.50710107421875,-0.4031710624694824,-0.051312681287527084,0.11239920556545258
1772458517996126200,13.517126220703124,-0.36651915311813354,-0.03298672288656235,0.10506882518529892
1772458518006089200,13.527089111328126,-0.3286454975605011,-0.021991148591041565,0.08429940044879913
1772458518016089900,13.53708984375,-0.2883284091949463,-0.00733038317412138,0.05864306539297104
1772458518026069200,13.5470693359375,-0.24923302233219147,0.00733038317412138,0.018325956538319588
1772458518046072300,13.567072265625,-0.14782938361167908,0.05375614017248154,-0.08674286305904388
1772458518058892000,13.57989208984375,-0.10506882518529892,0.06963863968849182,-0.12461651116609573
1772458518066112300,13.5871123046875,-0.06475171446800232,0.07452555745840073,-0.14538592100143433
1772458518076146700,13.597146728515625,-0.024434609338641167,0.06963863968849182,-0.1514945775270462
1772458518086116000,13.6071162109375,0.012217304669320583,0.0659734457731247,-0.1417207419872284
1772458518096126700,13.617126708984374,0.04764748737215996,0.06475171446800232,-0.13561208546161652
1772458518106143000,13.62714306640625,0.0757472887635231,0.05742133408784866,-0.12339477986097336
1772458518116173000,13.637173095703124,0.09773843735456467,0.04886921867728233,-0.09651670604944229
1772458518126140400,13.647140380859375,0.1160643994808197,0.05375614017248154,-0.06719517707824707
1772458518136146700,13.657146728515626,0.1319468915462494,0.06352998316287994,-0.04153883829712868
1772458518156488700,13.67748876953125,0.1563815027475357,0.06108652427792549,-0.013439035043120384
1772458518166142200,13.68714208984375,0.1661553531885147,0.05742133408784866,-0.009773843921720982
1772458518176149200,13.697149169921875,0.1771509200334549,0.05497787147760391,-0.012217304669320583
1772458518186143000,13.70714306640625,0.18570303916931152,0.06108652427792549,-0.021991148591041565
1772458518196797200,13.717797119140625,0.1918116807937622,0.0659734457731247,-0.03176499158143997
1772458518206142700,13.727142822265625,0.1966986060142517,0.06475171446800232,-0.03420845419168472
1772458518217782500,13.738782470703125,0.2015855312347412,0.06230825558304787,-0.04153883829712868
1772458518226156000,13.747156005859376,0.2076941877603531,0.06352998316287994,-0.05375614017248154
1772458518236173000,13.757173095703125,0.21013765037059784,0.06963863968849182,-0.06841690838336945
1772458518246138600,13.767138671875,0.21380282938480377,0.0708603709936142,-0.09162978827953339
1772458518266132000,13.787132080078125,0.21868975460529327,0.0757472887635231,-0.13927727937698364
1772458518276167000,13.7971669921875,0.21868975460529327,0.07452555745840073,-0.1563815027475357
1772458518286125800,13.807125732421875,0.21991148591041565,0.06963863968849182,-0.1612684279680252
1772458518296141300,13.817141357421875,0.21991148591041565,0.05742133408784866,-0.15271630883216858
1772458518306120000,13.827119873046875,0.22602014243602753,0.0403171069920063,-0.11850785464048386
1772458518316162300,13.837162353515625,0.2272418737411499,0.018325956538319588,-0.09529497474431992
1772458518326124800,13.847124755859374,0.22357667982578278,-0.004886921960860491,-0.051312681287527084
1772458518336132400,13.85713232421875,0.21991148591041565,-0.02932153269648552,0.00366519158706069
1772458518346135600,13.867135498046874,0.21502456068992615,-0.042760565876960754,0.0659734457731247
1772458518357098000,13.878097900390625,0.21013765037059784,-0.05375614017248154,0.12217304855585098
1772458518378662100,13.899662109375,0.19547687470912933,-0.06719517707824707,0.19425514340400696
1772458518386168000,13.90716796875,0.1869247704744339,-0.06841690838336945,0.2272418737411499
1772458518396205300,13.917205322265625,0.17959438264369965,-0.06230825558304787,0.24068090319633484
1772458518406168600,13.92716845703125,0.17104226350784302,-0.04886921867728233,0.2370157092809677
1772458518416173000,13.937173095703125,0.16249015927314758,-0.030543262138962746,0.21380282938480377
1772458518426153000,13.947153076171874,0.1563815027475357,-0.009773843921720982,0.17837265133857727
1772458518436200000,13.957199951171875,0.1514945775270462,0.01466076634824276,0.13805554807186127
1772458518446191900,13.96719189453125,0.14416420459747314,0.04764748737215996,0.05619960278272629
1772458518456509200,13.97750927734375,0.14049901068210602,0.059864792972803116,-0.00855211354792118
1772458518466179300,13.987179443359375,0.13316862285137177,0.06841690838336945,-0.06230825558304787
1772458518496182800,14.017182861328125,0.08552113175392151,0.07452555745840073,-0.10384709388017654
1772458518506163500,14.02716357421875,0.05497787147760391,0.06108652427792549,-0.09896016865968704
1772458518516805000,14.03780517578125,0.019547687843441963,0.045204028487205505,-0.08307767659425735
1772458518526152000,14.04715185546875,-0.02321287989616394,0.028099801391363144,-0.04764748737215996
1772458518537771000,14.05877099609375,-0.06963863968849182,0.01466076634824276,-0.004886921960860491
1772458518546167800,14.067167724609375,-0.11239920556545258,0.0012217304902151227,0.025656340643763542
1772458518556543200,14.077543212890625,-0.15271630883216858,-0.015882495790719986,0.042760565876960754
1772458518566185700,14.087185791015624,-0.19425514340400696,-0.03176499158143997,0.05619960278272629
1772458518596210700,14.117210693359375,-0.2590068578720093,-0.02687807008624077,0.04398229718208313
1772458518606185500,14.127185546875,-0.25534167885780334,-0.010995574295520782,0.02932153269648552
1772458518616175000,14.137175048828125,-0.24556782841682434,0.00366519158706069,0.012217304669320583
1772458518626176500,14.147176513671875,-0.22846360504627228,0.018325956538319588,0.0012217304902151227
1772458518636214500,14.157214599609375,-0.2064724564552307,0.036651913076639175,-0.00855211354792118
1772458518646175200,14.16717529296875,-0.18325957655906677,0.04398229718208313,-0.02321287989616394
1772458518656488400,14.177488525390626,-0.16004669666290283,0.04398229718208313,-0.04153883829712868
1772458518666161400,14.187161376953124,-0.13439035415649414,0.051312681287527084,-0.06230825558304787
1772458518686179300,14.207179443359376,-0.0757472887635231,0.08307767659425735,-0.10751228034496307
1772458518698698200,14.2196982421875,-0.04764748737215996,0.08796459436416626,-0.1258382350206375
1772458518706208300,14.227208251953124,-0.024434609338641167,0.07941248267889023,-0.1319468915462494
1772458518716257000,14.237257080078125,0.0024434609804302454,0.06108652427792549,-0.12217304855585098
1772458518726304300,14.24730419921875,0.013439035043120384,0.051312681287527084,-0.10384709388017654
1772458518736237000,14.257237060546874,0.019547687843441963,0.045204028487205505,-0.08185594528913498
1772458518746221300,14.26722119140625,0.018325956538319588,0.036651913076639175,-0.05619960278272629
1772458518756588800,14.2775888671875,0.013439035043120384,0.02932153269648552,-0.02932153269648552
1772458518766223600,14.2872236328125,0.00366519158706069,0.02321287989616394,-0.01466076634824276
1772458518776272000,14.29727197265625,-0.00366519158706069,0.019547687843441963,-0.019547687843441963
1772458518796297500,14.31729736328125,-0.03176499158143997,0.015882495790719986,-0.08307767659425735
1772458518806247400,14.327247314453125,-0.0403171069920063,0.019547687843441963,-0.11362093687057495
1772458518816275200,14.337275146484375,-0.04642575979232788,0.021991148591041565,-0.14294247329235077
1772458518826253600,14.347253662109376,-0.05009094998240471,0.01710422709584236,-0.15882496535778046
1772458518836928500,14.357928466796874,-0.05253441259264946,0.006108652334660292,-0.1612684279680252
1772458518846265300,14.367265380859376,-0.05009094998240471,0.0012217304902151227,-0.14538592100143433
1772458518858229800,14.379229736328124,-0.04764748737215996,0.00855211354792118,-0.13316862285137177
1772458518866283800,14.38728369140625,-0.04642575979232788,0.006108652334660292,-0.1160643994808197
1772458518876333600,14.39733349609375,-0.04398229718208313,-0.006108652334660292,-0.1014036312699318
1772458518886279200,14.407279052734374,-0.04153883829712868,-0.021991148591041565,-0.08674286305904388
1772458518906261500,14.427261474609375,-0.04153883829712868,-0.04642575979232788,-0.06475171446800232
1772458518916308200,14.43730810546875,-0.042760565876960754,-0.05253441259264946,-0.05742133408784866
1772458518926260000,14.447260009765625,-0.04642575979232788,-0.05253441259264946,-0.051312681287527084
1772458518936282600,14.45728271484375,-0.05009094998240471,-0.04764748737215996,-0.045204028487205505
1772458518946274600,14.467274658203126,-0.05619960278272629,-0.04153883829712868,-0.03787364438176155
1772458518956630000,14.477630126953125,-0.06230825558304787,-0.042760565876960754,-0.03420845419168472
1772458518966257700,14.487257568359375,-0.06841690838336945,-0.042760565876960754,-0.03298672288656235
1772458518976272100,14.497272216796874,-0.0757472887635231,-0.04398229718208313,-0.0403171069920063
1772458518986236200,14.507236083984376,-0.08185594528913498,-0.04153883829712868,-0.05375614017248154
1772458519006209500,14.52720947265625,-0.0757472887635231,-0.028099801391363144,-0.0659734457731247
1772458519018739700,14.53973974609375,-0.06719517707824707,-0.02687807008624077,-0.06352998316287994
1772458519026228200,14.547228271484375,-0.05497787147760391,-0.036651913076639175,-0.051312681287527084
1772458519036263000,14.557262939453125,-0.04398229718208313,-0.051312681287527084,-0.03176499158143997
1772458519046201600,14.56720166015625,-0.030543262138962746,-0.05009094998240471,-0.010995574295520782
1772458519056525800,14.57752587890625,-0.010995574295520782,-0.03176499158143997,-0.006108652334660292
1772458519066201900,14.587201904296874,0.006108652334660292,-0.01710422709584236,-0.00733038317412138
1772458519076274700,14.597274658203125,0.019547687843441963,-0.02321287989616394,-0.00855211354792118
1772458519086208800,14.607208740234375,0.03420845419168472,-0.030543262138962746,-0.004886921960860491
1772458519116331000,14.6373310546875,0.05742133408784866,-0.01710422709584236,-0.013439035043120384
1772458519126267400,14.647267333984376,0.05497787147760391,-0.015882495790719986,0
1772458519136298200,14.65729833984375,0.04886921867728233,-0.018325956538319588,0.024434609338641167
1772458519146261200,14.66726123046875,0.0403171069920063,-0.021991148591041565,0.05009094998240471
1772458519157219300,14.67821923828125,0.03176499158143997,-0.02321287989616394,0.0708603709936142
1772458519166280700,14.68728076171875,0.02321287989616394,-0.02321287989616394,0.08429940044879913
1772458519177910800,14.698910888671875,0.012217304669320583,-0.02076941914856434,0.09162978827953339
1772458519186306600,14.707306640625,0.0024434609804302454,-0.018325956538319588,0.09285151958465576
1772458519196390700,14.717390625,-0.00855211354792118,-0.010995574295520782,0.0806342139840126
1772458519226417400,14.74741748046875,-0.03176499158143997,0.015882495790719986,0.0403171069920063
1772458519236473000,14.75747314453125,-0.03420845419168472,0.02687807008624077,0.028099801391363144
1772458519246419200,14.767419189453125,-0.03298672288656235,0.03176499158143997,0.01466076634824276
1772458519257168600,14.778168701171875,-0.02932153269648552,0.036651913076639175,0.0012217304902151227
1772458519266406000,14.787406005859374,-0.024434609338641167,0.039095375686883926,0
1772458519276442600,14.797442626953124,-0.02076941914856434,0.0354301854968071,0
1772458519286382800,14.8073828125,-0.013439035043120384,0.0403171069920063,0
1772458519296403200,14.8174033203125,-0.009773843921720982,0.0403171069920063,0.004886921960860491
1772458519306388200,14.82738818359375,-0.006108652334660292,0.03298672288656235,0.01466076634824276
1772458519326379300,14.847379150390625,0.00733038317412138,0.02321287989616394,0.0403171069920063
1772458519338896400,14.859896484375,0.013439035043120384,0.019547687843441963,0.05375614017248154
1772458519346397200,14.867397216796874,0.019547687843441963,0.018325956538319588,0.0659734457731247
1772458519356752400,14.87775244140625,0.02321287989616394,0.02076941914856434,0.07330382615327835
1772458519366381800,14.8873818359375,0.024434609338641167,0.02321287989616394,0.06963863968849182
1772458519376398300,14.8973984375,0.025656340643763542,0.02932153269648552,0.06352998316287994
1772458519386377200,14.907377197265625,0.025656340643763542,0.03420845419168472,0.05253441259264946
1772458519396399900,14.91739990234375,0.02321287989616394,0.039095375686883926,0.02321287989616394
1772458519406353400,14.927353515625,0.024434609338641167,0.0403171069920063,0.00366519158706069
1772458519416372000,14.9373720703125,0.028099801391363144,0.04153883829712868,-0.025656340643763542
1772458519426334700,14.947334716796876,0.03176499158143997,0.0403171069920063,-0.042760565876960754
1772458519436367400,14.957367431640625,0.03420845419168472,0.02932153269648552,-0.04764748737215996
1772458519446334700,14.967334716796875,0.03787364438176155,0.015882495790719986,-0.03298672288656235
1772458519456695000,14.977695068359376,0.039095375686883926,0.006108652334660292,-0.0024434609804302454
