time,seconds_elapsed,z,y,x
1772458504921838300,0.44283837890625,-0.9193734526634216,0.42377370595932007,-2.0254945755004883
1772458504931201500,0.452201416015625,5.279214859008789,9.38048267364502,-2.0207061767578125
1772458504943830000,0.464830078125,14.848838806152344,3.471592426300049,11.111490249633789
1772458504951898000,0.472898193359375,14.949395179748535,3.404554843902588,11.039664268493652
1772458504961947100,0.482947021484375,15.030797958374023,3.552995204925537,11.046846389770508
1772458504971922400,0.49292236328125,15.04516315460205,3.6583402156829834,11.135432243347168
1772458504981962800,0.502962646484375,15.090653419494629,3.6774938106536865,11.010933876037598
1772458504991944000,0.51294384765625,15.10262393951416,3.5673606395721436,11.111490249633789
1772458505001994000,0.522993896484375,15.121777534484863,3.5410242080688477,11.082759857177734
1772458505011958500,0.53295849609375,15.10023021697998,3.5051112174987793,11.022904396057129
1772458505021985000,0.542985107421875,15.016432762145996,3.5458126068115234,11.034875869750977
1772458505031977200,0.552977294921875,15.105018615722656,3.536235809326172,11.039664268493652
1772458505052000000,0.573,15.107412338256836,3.6152446269989014,11.08754825592041
1772458505062024400,0.5830244140625,15.040374755859375,3.555389642715454,11.085153579711914
1772458505072007700,0.593007568359375,14.982913970947266,3.576937437057495,11.044452667236328
1772458505082659300,0.603659423828125,14.954183578491211,3.512293815612793,11.063606262207031
1772458505092016400,0.613016357421875,15.030797958374023,3.471592426300049,11.063606262207031
1772458505104523300,0.625523193359375,15.026009559631348,3.490746021270752,11.085153579711914
1772458505112067300,0.6330673828125,15.030797958374023,3.5721490383148193,11.075576782226562
1772458505122124500,0.64312451171875,14.923059463500977,3.706224203109741,11.224017143249512
1772458505132113000,0.65311279296875,14.915876388549805,3.670311212539673,11.279084205627441
1772458505152131800,0.6731318359375,14.765042304992676,3.6798880100250244,11.281478881835938
1772458505162177500,0.683177490234375,14.590265274047852,3.667917013168335,11.346121788024902
1772458505172162300,0.693162353515625,14.554351806640625,3.6750996112823486,11.362881660461426
1772458505182178300,0.70317822265625,14.334085464477539,3.6750996112823486,11.48259162902832
1772458505192157700,0.71315771484375,14.27662467956543,3.7229835987091064,11.456254959106445
1772458505202190300,0.7231904296875,14.147337913513184,3.663128614425659,11.611878395080566
1772458505212158700,0.73315869140625,14.051569938659668,3.687070608139038,11.695674896240234
1772458505222183700,0.74318359375,13.797784805297852,3.576937437057495,11.824962615966797
1772458505232161500,0.75316162109375,13.7882080078125,3.584120035171509,11.882423400878906
1772458505243116000,0.764115966796875,13.57751750946045,3.5051112174987793,12.097901344299316
1772458505263777800,0.78477783203125,13.172897338867188,3.445256233215332,12.222399711608887
1772458505272195600,0.793195556640625,13.096282958984375,3.5170822143554688,12.174515724182129
1772458505282230000,0.80322998046875,12.756306648254395,3.5434184074401855,12.406753540039062
1772458505292209000,0.813208984375,12.832921028137207,3.4404678344726562,12.418724060058594
1772458505302220500,0.823220458984375,12.480973243713379,3.3901896476745605,12.567164421081543
1772458505312202800,0.83320263671875,12.440272331237793,3.428496837615967,12.540828704833984
1772458505322235400,0.8432353515625,12.047622680664062,3.2800562381744385,12.773066520690918
1772458505332228900,0.853228759765625,12.038045883178711,3.2537200450897217,12.801796913146973
1772458505342548000,0.8635478515625,11.552022933959961,3.114856481552124,12.868834495544434
1772458505372231400,0.8932314453125,11.27190113067627,3.1459810733795166,13.12501335144043
1772458505382253600,0.903253662109375,10.934319496154785,3.043030261993408,13.242329597473145
1772458505392237300,0.9132373046875,10.943896293640137,3.047818660736084,13.227964401245117
1772458505402877400,0.92387744140625,10.467450141906738,2.920926094055176,13.306973457336426
1772458505412252200,0.933252197265625,10.493785858154297,2.892195701599121,13.342885971069336
1772458505424746000,0.94574609375,10.038887977600098,2.8993782997131348,13.421895027160645
1772458505432303000,0.95330322265625,10.146626472473145,2.9041666984558105,13.419500350952148
1772458505442649000,0.963649169921875,9.591172218322754,2.851494312286377,13.716381072998047
1772458505452307500,0.973307373046875,9.773131370544434,2.7509377002716064,13.491326332092285
1772458505482365000,1.003364990234375,8.734047889709473,2.691082715988159,13.725957870483398
1772458505492337000,1.0133369140625,8.755595207214355,2.650381326675415,13.716381072998047
1772458505502351000,1.02335107421875,8.202534675598145,2.583343744277954,13.709198951721191
1772458505512355800,1.03335595703125,8.26478385925293,2.5522189140319824,13.785813331604004
1772458505522400800,1.04340087890625,7.778761386871338,2.5306711196899414,13.778631210327148
1772458505532380700,1.053380615234375,8.075642585754395,2.715024709701538,14.092270851135254
1772458505542711600,1.063711669921875,6.976703643798828,2.3798365592956543,13.618219375610352
1772458505552391700,1.0733916015625,7.067683219909668,2.1715409755706787,13.776236534118652
1772458505584058600,1.10505859375,6.466738700866699,2.1787235736846924,13.848062515258789
1772458505592424400,1.113424560546875,6.687005519866943,1.8938134908676147,13.91270637512207
1772458505602466600,1.123466552734375,6.1530985832214355,1.8531121015548706,13.67807388305664
1772458505612451000,1.133451171875,5.966350555419922,1.9536685943603516,13.453019142150879
1772458505622457900,1.143457763671875,5.583278179168701,1.821987509727478,13.625401496887207
1772458505632428000,1.153427978515625,5.6670756340026855,1.8962076902389526,13.563152313232422
1772458505642770200,1.163770263671875,5.298368453979492,1.8291701078414917,13.160926818847656
1772458505652422100,1.173422119140625,5.398924827575684,2.056619167327881,13.204022407531738
1772458505662442000,1.18344189453125,5.0685248374938965,1.965639591217041,12.957419395446777
1772458505682454000,1.2034541015625,4.709394931793213,1.6950948238372803,12.804190635681152
1772458505702430000,1.223429931640625,4.264073371887207,1.6639702320098877,12.583924293518066
1772458505712405200,1.2334052734375,4.321534156799316,1.702277421951294,12.516886711120605
1772458505723045600,1.244045654296875,4.01268196105957,1.5705963373184204,12.442666053771973
1772458505732418800,1.253418701171875,3.9815573692321777,1.5658079385757446,12.375628471374512
1772458505745224400,1.266224365234375,3.6511576175689697,1.4724340438842773,12.179304122924805
1772458505752747500,1.27374755859375,3.6296098232269287,1.4245500564575195,12.212822914123535
1772458505762474800,1.283474853515625,3.265691041946411,1.3407529592514038,12.016498565673828
1772458505792425200,1.31342529296875,2.940079689025879,1.1348515748977661,11.798625946044922
1772458505802509000,1.323509033203125,2.6408045291900635,1.0893617868423462,11.508927345275879
1772458505812474400,1.333474365234375,2.583343744277954,1.1324573755264282,11.568782806396484
1772458505822492000,1.343491943359375,2.250549554824829,1.039083480834961,11.279084205627441
1772458505832477200,1.353477294921875,2.296039342880249,1.091755986213684,11.279084205627441
1772458505842837800,1.363837646484375,2.0207061767578125,0.9816226959228516,11.03248119354248
1772458505852509700,1.373509765625,1.9919757843017578,1.0223240852355957,11.061211585998535
1772458505862529500,1.383529541015625,1.7262194156646729,0.9457096457481384,10.72841739654541
1772458505872509700,1.393509765625,1.6950948238372803,1.0534487962722778,10.706870079040527
1772458505892533500,1.413533447265625,1.3072341680526733,0.9528923034667969,10.457873344421387
1772458505904159500,1.425159423828125,1.115697979927063,0.7924807667732239,10.14902114868164
1772458505912553000,1.433552978515625,1.0869675874710083,0.8068459630012512,10.122684478759766
1772458505922595300,1.44359521484375,0.790086567401886,0.7661445140838623,9.749189376831055
1772458505932563700,1.453563720703125,0.7374141216278076,0.6991068720817566,9.732429504394531
1772458505942883300,1.46388330078125,0.4405331015586853,0.6440402865409851,9.378087997436523
1772458505952552400,1.473552490234375,0.48602294921875,0.6775590777397156,9.394847869873047
1772458505962618600,1.48361865234375,0.30885201692581177,0.6177040338516235,8.918401718139648
1772458505972576300,1.493576171875,0.30885201692581177,0.7182605266571045,8.937555313110352
1772458506002610200,1.523610107421875,-0.14365209639072418,0.5147533416748047,8.094796180725098
1772458506012576300,1.533576171875,-0.08619125932455063,0.47884035110473633,8.197746276855469
1772458506022579000,1.543578857421875,-0.2801215946674347,0.4836287498474121,7.706935405731201
1772458506032550100,1.553550048828125,-0.2513911724090576,0.47644615173339844,7.711723804473877
1772458506043513600,1.564513671875,-0.38307225704193115,0.4357447028160095,7.285555839538574
1772458506052559400,1.573559326171875,-0.363918662071228,0.3926490843296051,7.285555839538574
1772458506065058000,1.58605810546875,-0.5530605912208557,0.2801215946674347,6.878541469573975
1772458506082590200,1.603590087890625,-0.5674257874488831,0.24899697303771973,6.447585105895996
1772458506112544300,1.633544189453125,-0.8092401623725891,0.2346317619085312,5.904101371765137
1772458506122571300,1.6435712890625,-0.9217676520347595,0.1412578970193863,5.418078422546387
1772458506132552200,1.65355224609375,-0.849941611289978,0.2082955539226532,5.43723201751709
1772458506142868700,1.66386865234375,-0.9002198576927185,0.19632454216480255,4.896142482757568
1772458506152532700,1.67353271484375,-0.8834604024887085,0.10773907601833344,4.920084476470947
1772458506162558700,1.683558837890625,-0.9672574996948242,0.05746084079146385,4.525041103363037
1772458506172523500,1.6935234375,-0.9888052940368652,0.08619125932455063,4.517858505249023
1772458506182526500,1.7035263671875,-0.9911994934082031,-0.023942016065120697,4.019864559173584
1772458506192519000,1.713518798828125,-0.9888052940368652,-0.021547814831137657,3.9911341667175293
1772458506224151000,1.745151123046875,-0.8643068075180054,-0.10295066982507706,3.0837318897247314
1772458506232508700,1.7535087890625,-0.8427590131759644,-0.08858546614646912,3.043030261993408
1772458506242856700,1.763856689453125,-0.8307880163192749,-0.08379705995321274,2.6144683361053467
1772458506252507600,1.773507568359375,-0.8020575642585754,-0.1412578970193863,2.604891538619995
1772458506262508800,1.7835087890625,-0.6847416758537292,-0.07182604819536209,2.0638017654418945
1772458506272481000,1.79348095703125,-0.6991068720817566,-0.05506663769483566,2.1068975925445557
1772458506282516500,1.8035166015625,-0.6751648783683777,-0.07900865375995636,1.647210717201233
1772458506292476400,1.813476318359375,-0.7015010714530945,-0.13168109953403473,1.6735470294952393
1772458506302477800,1.823477783203125,-0.49799394607543945,-0.11252748221158981,1.2282254695892334
1772458506332461000,1.8534609375,-0.40222588181495667,-0.07900865375995636,0.8451532125473022
1772458506342777600,1.863777587890625,-0.2753331959247589,-0.07422025501728058,0.5315127968788147
1772458506352440300,1.8734404296875,-0.3447650372982025,-0.026336219161748886,0.5003881454467773
1772458506363073000,1.884072998046875,-0.24420857429504395,-0.05746084079146385,0.31124621629714966
1772458506372428500,1.893428466796875,-0.3064578175544739,-0.05267243832349777,0.3447650372982025
1772458506384930000,1.905929931640625,-0.2561795711517334,-0.08858546614646912,0.3256114423274994
1772458506392451800,1.913451904296875,-0.2346317619085312,-0.1843535304069519,0.3232172429561615
1772458506402479900,1.92347998046875,-0.26336219906806946,-0.11971008777618408,0.14365209639072418
1772458506412445000,1.93344482421875,-0.24899697303771973,-0.0694318488240242,0.24420857429504395
1772458506432439600,1.953439453125,-0.14604631066322327,-0.08619125932455063,0.11013327538967133
1772458506442772200,1.963772216796875,-0.16519992053508759,-0.031124621629714966,0.0933738648891449
1772458506452423400,1.97342333984375,-0.15322890877723694,-0.05985504388809204,0.08619125932455063
1772458506462427100,1.98342724609375,-0.19871874153614044,-0.07182604819536209,0.1364694982767105
1772458506472406300,1.99340625,-0.12210428714752197,-0.043095629662275314,0.0933738648891449
1772458506482486300,2.003486328125,-0.13407529890537262,-0.009576806798577309,0.047884032130241394
1772458506492492300,2.0134921875,-0.15562310814857483,-0.040701430290937424,0.10534487664699554
1772458506502489300,2.0234892578125,-0.11252748221158981,0.021547814831137657,0.06703764945268631
1772458506523101000,2.044100830078125,-0.026336219161748886,0.11013327538967133,0.031124621629714966
1772458506532476400,2.053476318359375,-0.1173158809542656,0.20111294090747833,0.10534487664699554
1772458506544374000,2.0653740234375,-0.05027823522686958,0.13168109953403473,0.11013327538967133
1772458506552490500,2.073490478515625,-0.043095629662275314,0.11252748221158981,0.05506663769483566
1772458506562507500,2.083507568359375,-0.031124621629714966,0.16759411990642548,0.10773907601833344
1772458506572525800,2.09352587890625,-0.009576806798577309,0.21547815203666687,0.0454898327589035
1772458506582496300,2.103496337890625,-0.14365209639072418,0.16759411990642548,0.10773907601833344
1772458506592489200,2.1134892578125,-0.17956513166427612,0.12449848651885986,0.05027823522686958
1772458506602525700,2.123525634765625,-0.16519992053508759,0.08858546614646912,-0.019153613597154617
1772458506632514000,2.15351416015625,-0.2537853717803955,0.16519992053508759,-0.05985504388809204
1772458506642840000,2.163840087890625,-0.2753331959247589,0.17956513166427612,-0.040701430290937424
1772458506652490200,2.173490234375,-0.2537853717803955,0.033518824726343155,-0.002394201699644327
1772458506662486500,2.183486572265625,-0.2513911724090576,-0.011971008032560349,0.009576806798577309
1772458506672490000,2.193489990234375,-0.2561795711517334,0.016759412363171577,-0.043095629662275314
1772458506683166000,2.204166015625,-0.42616790533065796,0.19393034279346466,-0.16998831927776337
1772458506692571100,2.213571044921875,-0.49559974670410156,0.08379705995321274,-0.27054479718208313
1772458506705109500,2.226109619140625,-0.5195417404174805,0.06224924325942993,-0.2513911724090576
1772458506732737300,2.2537373046875,-0.545877993106842,-0.40701428055763245,-0.30885201692581177
1772458506743091000,2.264091064453125,-0.6967126727104187,-0.5578489899635315,-0.35673606395721436
1772458506752848000,2.273847900390625,-0.6105214357376099,-0.6751648783683777,-0.2537853717803955
1772458506762828300,2.283828369140625,-0.6536170840263367,-0.6799532771110535,-0.21308395266532898
1772458506772826400,2.293826416015625,-0.7206547260284424,-0.7805097699165344,-0.15562310814857483
1772458506782876000,2.3038759765625,-0.7661445140838623,-0.6919242739677429,-0.16519992053508759
1772458506792883700,2.3138837890625,-0.8355764150619507,-0.7350199222564697,-0.16519992053508759
1772458506802906000,2.323906005859375,-0.7637503147125244,-0.5985504388809204,-0.09816227108240128
1772458506812904400,2.333904541015625,-0.8236053586006165,-0.8427590131759644,-0.05027823522686958
1772458506843824400,2.364824462890625,-1.2258312702178955,-1.0031704902648926,0.0454898327589035
1772458506852897800,2.373897705078125,-1.2761094570159912,-1.1899182796478271,0.07900865375995636
1772458506864594400,2.385594482421875,-1.3982137441635132,-1.400607943534851,0.0694318488240242
1772458506872968400,2.393968505859375,-1.4460978507995605,-1.558625340461731,-0.07422025501728058
1772458506883037000,2.404036865234375,-1.2976573705673218,-1.3335703611373901,-0.040701430290937424
1772458506893004500,2.414004638671875,-1.3000515699386597,-1.278503656387329,0.035913024097681046
1772458506903035400,2.424035400390625,-1.278503656387329,-1.0414776802062988,0
1772458506913036000,2.4340361328125,-1.3048399686813354,-1.0031704902648926,0.019153613597154617
1772458506923104300,2.444104248046875,-1.3120225667953491,-0.7445967197418213,0.026336219161748886
1772458506953098200,2.47409814453125,-1.3192051649093628,-0.3519476354122162,-0.15083470940589905
1772458506963141600,2.4841416015625,-1.3263877630233765,-0.2753331959247589,-0.18914192914962769
1772458506973102800,2.494102783203125,-1.4389152526855469,-0.23942017555236816,-0.10773907601833344
1772458506983124700,2.504124755859375,-1.434126853942871,-0.1843535304069519,-0.08858546614646912
1772458506993118200,2.5141181640625,-1.5322890281677246,-0.3878606855869293,0.10295066982507706
1772458507003756500,2.524756591796875,-1.7310078144073486,-0.3256114423274994,0.14844051003456116
1772458507013129500,2.53412939453125,-1.7956513166427612,-0.4429273009300232,0.1149216815829277
1772458507025628400,2.54662841796875,-1.8387469053268433,-0.44771572947502136,-0.040701430290937424
1772458507053149700,2.574149658203125,-1.5705963373184204,-0.4692635238170624,-0.10773907601833344
1772458507063148800,2.584148681640625,-1.357512354850769,-0.2753331959247589,-0.2801215946674347
1772458507073141000,2.59414111328125,-1.2832920551300049,-0.20111294090747833,-0.05985504388809204
1772458507083159800,2.604159912109375,-1.237802267074585,0.023942016065120697,-0.06224924325942993
1772458507093116400,2.614116455078125,-1.4437036514282227,0.16998831927776337,0.17717093229293823
1772458507103160600,2.62416064453125,-1.5705963373184204,0.5554547905921936,0.28969839215278625
1772458507113156000,2.634156005859375,-1.7717092037200928,0.43095630407333374,0.3663128614425659
1772458507123175000,2.6441748046875,-1.6735470294952393,0.16759411990642548,0.3232172429561615
1772458507133136400,2.654136474609375,-1.7381904125213623,-0.12928688526153564,0.3495534360408783
1772458507163803400,2.684803466796875,-1.3024457693099976,-0.016759412363171577,0.4572925269603729
1772458507173167600,2.694167724609375,-1.3024457693099976,0.05267243832349777,0.706289529800415
1772458507184765000,2.705764892578125,-1.0797849893569946,0.2537853717803955,0.7445967197418213
1772458507193184800,2.714184814453125,-1.2282254695892334,0.24660277366638184,1.0414776802062988
1772458507203221200,2.72422119140625,-0.9624691009521484,0.17238251864910126,1.158793568611145
1772458507213184300,2.734184326171875,-1.0414776802062988,0.15322890877723694,1.4700398445129395
1772458507223189200,2.744189208984375,-0.8523358106613159,0.2561795711517334,1.3527239561080933
1772458507233169400,2.75416943359375,-0.9624691009521484,0.1388636976480484,1.5945383310317993
1772458507243497200,2.764497314453125,-0.7829039692878723,-0.10055647045373917,1.5849615335464478
1772458507273147100,2.794147216796875,-0.33518823981285095,-0.3758896589279175,2.2433669567108154
1772458507283159300,2.8041591796875,-0.08858546614646912,-0.6248866319656372,2.456450939178467
1772458507293120800,2.814120849609375,-0.16759411990642548,-0.8092401623725891,2.7533318996429443
1772458507303126300,2.824126220703125,0.011971008032560349,-1.01753568649292,2.8203697204589844
1772458507313106700,2.834106689453125,-0.15083470940589905,-1.1994950771331787,3.043030261993408
1772458507323730400,2.84473046875,-0.021547814831137657,-1.4317326545715332,2.9328970909118652
1772458507333121800,2.854121826171875,-0.15562310814857483,-1.644816517829895,3.0310592651367188
1772458507345992400,2.866992431640625,0.019153613597154617,-2.0446481704711914,2.736572504043579
1772458507373275000,2.89427490234375,-0.14604631066322327,-2.3702597618103027,1.9919757843017578
1772458507383282400,2.904282470703125,-0.004788403399288654,-2.3343467712402344,1.824381709098816
1772458507393284000,2.9142841796875,-0.17956513166427612,-2.2146365642547607,1.6496049165725708
1772458507403322400,2.924322265625,-0.023942016065120697,-2.1978771686553955,1.3407529592514038
1772458507413295400,2.93429541015625,-0.002394201699644327,-1.8842366933822632,1.2641384601593018
1772458507423310300,2.944310302734375,0.10534487664699554,-1.5969325304031372,0.993593692779541
1772458507433315800,2.95431591796875,0.038307227194309235,-1.460463047027588,0.8810662031173706
1772458507443678700,2.9646787109375,-0.028730420395731926,-1.1180921792984009,0.5985504388809204
1772458507453350400,2.974350341796875,-0.07422025501728058,-1.0271124839782715,0.5841852426528931
1772458507473369300,2.994369384765625,-0.36152446269989014,-0.9959878921508789,0.26336219906806946
1772458507484028700,3.005028564453125,-0.3758896589279175,-0.8954314589500427,0.21547815203666687
1772458507493409300,3.0144091796875,-0.45250412821769714,-0.9648633003234863,0.1149216815829277
1772458507505074400,3.026074462890625,-0.44771572947502136,-0.8547300100326538,0.016759412363171577
1772458507513441000,3.03444091796875,-0.5889736413955688,-1.0606313943862915,-0.05027823522686958
1772458507523482000,3.044482177734375,-0.5578489899635315,-0.9528923034667969,-0.07661445438861847
1772458507543826400,3.064826416015625,-0.6703764796257019,-1.1085153818130493,-0.17956513166427612
1772458507553511000,3.074510986328125,-0.6440402865409851,-1.2090718746185303,-0.15801730751991272
1772458507563550200,3.08455029296875,-0.4189853072166443,-1.1348515748977661,-0.15562310814857483
1772458507583560000,3.104559814453125,0.035913024097681046,-0.9600749015808105,-0.2322375625371933
1772458507593555700,3.1145556640625,0.3423708379268646,-1.0295066833496094,-0.14604631066322327
1772458507603593500,3.124593505859375,0.5051765441894531,-1.0845733880996704,0.004788403399288654
1772458507614611700,3.13561181640625,0.33758243918418884,-1.2042834758758545,0.2322375625371933
1772458507624631800,3.1456318359375,0.14844051003456116,-1.314416766166687,0.43095630407333374
1772458507634645200,3.155645263671875,-0.08379705995321274,-1.3910311460494995,0.5841852426528931
1772458507645604900,3.16660498046875,-0.047884032130241394,-1.213860273361206,0.6224924325942993
1772458507654668000,3.17566796875,-0.040701430290937424,-1.048660397529602,0.7254431247711182
1772458507667170000,3.188170166015625,-0.16759411990642548,-0.7829039692878723,0.6655880808830261
1772458507684760800,3.2057607421875,-0.6272808313369751,-0.5339069962501526,0.47644615173339844
1772458507694748000,3.215747802734375,-0.8044517636299133,-0.5770025849342346,0.38307225704193115
1772458507704769000,3.22576904296875,-0.9959878921508789,-0.586579442024231,0.33039984107017517
1772458507714767400,3.235767333984375,-1.1252747774124146,-0.4429273009300232,0.47884035110473633
1772458507724809700,3.245809814453125,-1.1875240802764893,-0.3758896589279175,0.5817909836769104
1772458507734806500,3.255806640625,-1.3048399686813354,-0.28730419278144836,0.6823474764823914
1772458507745137200,3.26613720703125,-1.403002142906189,-0.2537853717803955,0.5674257874488831
1772458507754819600,3.275819580078125,-1.400607943534851,-0.1867477297782898,0.45489832758903503
1772458507764848400,3.285848388671875,-1.4484920501708984,-0.047884032130241394,0.38546648621559143
1772458507774821000,3.295821044921875,-1.37906014919281,0.0694318488240242,0.42856210470199585
1772458507805489000,3.326489013671875,-1.4077905416488647,0.19393034279346466,0.33518823981285095
1772458507814860800,3.33586083984375,-1.41257905960083,0.14604631066322327,0.3519476354122162
1772458507834893800,3.355893798828125,-1.3694833517074585,0.29209262132644653,0.24420857429504395
1772458507845240300,3.366240234375,-1.1204863786697388,0.3423708379268646,0.26336219906806946
1772458507854897200,3.375897216796875,-0.9983820915222168,0.4572925269603729,0.2059013396501541
1772458507864897000,3.38589697265625,-0.8547300100326538,0.5650315880775452,0.10055647045373917
1772458507874908700,3.39590869140625,-0.8762778043746948,0.6057330369949341,0.10534487664699554
1772458507884932600,3.4059326171875,-0.7805097699165344,0.5386953949928284,-0.05506663769483566
1772458507904891400,3.425891357421875,-0.667982280254364,0.47165772318840027,-0.3519476354122162
1772458507914881500,3.435881591796875,-0.768538773059845,0.3902548849582672,-0.2992752194404602
1772458507924929500,3.445929443359375,-0.5770025849342346,0.44771572947502136,-0.2849099934101105
1772458507934899500,3.4558994140625,-0.5889736413955688,0.395043283700943,-0.17717093229293823
1772458507945217000,3.466217041015625,-0.5219359993934631,0.3711012601852417,-0.28969839215278625
1772458507954898200,3.475898193359375,-0.5434837937355042,0.2106897532939911,-0.17238251864910126
1772458507965522700,3.486522705078125,-0.43335050344467163,0.13168109953403473,-0.31124621629714966
1772458507974928000,3.495927978515625,-0.49320554733276367,0,-0.33758243918418884
1772458507987434800,3.508434814453125,-0.4381389021873474,-0.038307227194309235,-0.2561795711517334
1772458508014926600,3.535926513671875,-0.20350714027881622,-0.0694318488240242,-0.13407529890537262
1772458508024949200,3.54594921875,-0.047884032130241394,-0.004788403399288654,-0.08858546614646912
1772458508034935800,3.555935791015625,0,0.08140286058187485,-0.12689268589019775
1772458508045271000,3.56627099609375,0.08619125932455063,0.16519992053508759,0.040701430290937424
1772458508054931700,3.575931640625,0.11971008777618408,0.24899697303771973,-0.004788403399288654
1772458508064928500,3.585928466796875,0.23702596127986908,0.33758243918418884,-0.05027823522686958
1772458508074914600,3.59591455078125,0.33997663855552673,0.4620809257030487,-0.016759412363171577
1772458508084931800,3.605931884765625,0.6200982332229614,0.4357447028160095,0.05506663769483566
1772458508094894800,3.615894775390625,0.8523358106613159,0.5195417404174805,0.12449848651885986
1772458508125539800,3.646539794921875,1.170764684677124,0.8020575642585754,-0.08858546614646912
1772458508134924500,3.655924560546875,0.4692635238170624,0.33279404044151306,-0.17717093229293823
1772458508146841900,3.667841796875,0.2322375625371933,0.1388636976480484,0.07661445438861847
1772458508154945300,3.6759453125,0.3663128614425659,0.2561795711517334,0.17238251864910126
1772458508164989200,3.6859892578125,0.4213795065879822,0.19871874153614044,0.07900865375995636
1772458508174956800,3.695956787109375,0.3495534360408783,0.033518824726343155,0.10295066982507706
1772458508184962600,3.705962646484375,0.09576806426048279,-0.22505496442317963,0.002394201699644327
1772458508194934800,3.715934814453125,-0.014365210197865963,-0.33039984107017517,-0.07182604819536209
1772458508204982000,3.72598193359375,-0.09816227108240128,-0.29209262132644653,-0.11971008777618408
1772458508235002600,3.756002685546875,-0.1364694982767105,-0.3423708379268646,-0.1364694982767105
1772458508245331500,3.76633154296875,-0.21308395266532898,-0.3974374830722809,-0.07422025501728058
1772458508264989700,3.78598974609375,-0.33758243918418884,-0.5171475410461426,-0.14604631066322327
1772458508274966000,3.795966064453125,-0.29209262132644653,-0.49799394607543945,-0.21787235140800476
1772458508285601000,3.80660107421875,-0.31603461503982544,-0.42616790533065796,-0.1364694982767105
1772458508294964500,3.815964599609375,-0.2561795711517334,-0.3256114423274994,-0.16519992053508759
1772458508307456300,3.828456298828125,-0.2106897532939911,-0.36152446269989014,-0.12449848651885986
1772458508325004800,3.8460048828125,-0.37828385829925537,-0.36152446269989014,-0.17956513166427612
1772458508334976300,3.855976318359375,-0.40701428055763245,-0.3232172429561615,-0.1604115068912506
1772458508345299000,3.866298828125,-0.35673606395721436,-0.3256114423274994,-0.08619125932455063
1772458508354978000,3.87597802734375,-0.33279404044151306,-0.38546648621559143,-0.043095629662275314
1772458508365009400,3.886009521484375,-0.3064578175544739,-0.363918662071228,-0.06703764945268631
1772458508374967600,3.895967529296875,-0.3208230137825012,-0.3663128614425659,-0.1412578970193863
1772458508384969700,3.9059697265625,-0.3447650372982025,-0.4165911078453064,-0.24420857429504395
1772458508394956800,3.915956787109375,-0.31364041566848755,-0.45250412821769714,-0.15801730751991272
1772458508405275100,3.926275146484375,-0.2801215946674347,-0.3926490843296051,-0.19393034279346466
1772458508414959000,3.935958984375,-0.1364694982767105,-0.2992752194404602,-0.26575639843940735
1772458508445897000,3.96689697265625,-0.2825157940387726,-0.26336219906806946,-0.18914192914962769
1772458508454952000,3.975951904296875,-0.16519992053508759,-0.26815059781074524,-0.15322890877723694
1772458508466584300,3.987584228515625,-0.18914192914962769,-0.2825157940387726,-0.10773907601833344
1772458508474958600,3.99595849609375,-0.22505496442317963,-0.2992752194404602,-0.1173158809542656
1772458508484978200,4.005978271484375,-0.15083470940589905,-0.3280056416988373,-0.0933738648891449
1772458508504959700,4.025959716796875,-0.22744916379451752,-0.2777273952960968,-0.12689268589019775
1772458508514941700,4.035941650390625,-0.24420857429504395,-0.27054479718208313,-0.1412578970193863
1772458508545317400,4.0663173828125,-0.028730420395731926,-0.2346317619085312,-0.023942016065120697
1772458508554994200,4.075994140625,-0.08140286058187485,-0.15322890877723694,-0.05506663769483566
1772458508565021700,4.086021728515625,0.05746084079146385,-0.002394201699644327,-0.11013327538967133
1772458508574984200,4.095984130859375,-0.004788403399288654,0.07661445438861847,-0.047884032130241394
1772458508584986000,4.105986083984375,0.06224924325942993,0.13407529890537262,-0.07182604819536209
1772458508594957800,4.115957763671875,0.10055647045373917,0.2106897532939911,-0.040701430290937424
1772458508605617400,4.126617431640625,0.07661445438861847,0.23942017555236816,-0.090979665517807
1772458508614993400,4.135993408203125,0.011971008032560349,0.19393034279346466,-0.028730420395731926
1772458508627477000,4.14847705078125,0.05985504388809204,0.2298433631658554,-0.002394201699644327
1772458508645339000,4.1663388671875,0.0071826050989329815,0.12928688526153564,-0.08140286058187485
1772458508665026600,4.186026611328125,0.047884032130241394,0.15083470940589905,-0.0694318488240242
1772458508674994400,4.195994384765625,-0.038307227194309235,0.21787235140800476,-0.021547814831137657
1772458508685012000,4.206011962890625,-0.014365210197865963,0.23702596127986908,-0.08619125932455063
1772458508694981000,4.215981201171875,-0.014365210197865963,0.30885201692581177,-0.004788403399288654
1772458508705006300,4.22600634765625,-0.002394201699644327,0.2825157940387726,-0.11971008777618408
1772458508715027200,4.236027099609375,0.009576806798577309,0.38067805767059326,-0.040701430290937424
1772458508725048000,4.246048095703125,0.021547814831137657,0.272938996553421,-0.10295066982507706
1772458508735010600,4.256010498046875,0.0454898327589035,0.2777273952960968,-0.06703764945268631
1772458508754992600,4.27599267578125,-0.004788403399288654,0.2992752194404602,-0.12689268589019775
1772458508765629000,4.28662890625,-0.040701430290937424,0.3974374830722809,-0.10055647045373917
1772458508786595000,4.307594970703125,0.06224924325942993,0.3902548849582672,-0.18914192914962769
1772458508795014400,4.316014404296875,0.1173158809542656,0.4141969084739685,-0.12689268589019775
1772458508805048800,4.326048828125,0.10055647045373917,0.4357447028160095,-0.26815059781074524
1772458508815021000,4.33602099609375,0.16519992053508759,0.47884035110473633,-0.2777273952960968
1772458508825036500,4.34603662109375,0.15322890877723694,0.5267243981361389,-0.3711012601852417
1772458508835002600,4.356002685546875,0.24420857429504395,0.4620809257030487,-0.3902548849582672
1772458508845354000,4.36635400390625,0.12449848651885986,0.5315127968788147,-0.4884171485900879
1772458508865018600,4.3860185546875,0.17956513166427612,0.4884171485900879,-0.45489832758903503
1772458508874988500,4.395988525390625,0.12210428714752197,0.42856210470199585,-0.5291185975074768
1772458508885022200,4.406022216796875,0.14844051003456116,0.4429273009300232,-0.5482721924781799
1772458508894995500,4.415995361328125,0.1604115068912506,0.4644751250743866,-0.5602431893348694
1772458508905154800,4.42615478515625,0.14365209639072418,0.4141969084739685,-0.5123591423034668
1772458508915001900,4.436001953125,0.15083470940589905,0.4165911078453064,-0.4165911078453064
1772458508947877000,4.468877197265625,0.07422025501728058,0.3878606855869293,-0.004788403399288654
1772458508965069300,4.4860693359375,0.21787235140800476,0.3687070608139038,0.5291185975074768
1772458508975041300,4.496041259765625,0.19871874153614044,0.3926490843296051,0.7422025203704834
1772458508985099500,4.506099609375,0.3064578175544739,0.33279404044151306,0.8595184087753296
1772458508995046100,4.516046142578125,0.33279404044151306,0.24899697303771973,0.9385270476341248
1772458509005067000,4.52606689453125,0.2561795711517334,0.3016694188117981,0.849941611289978
1772458509015034400,4.536034423828125,0.31124621629714966,0.28730419278144836,0.7589619159698486
1772458509025090600,4.546090576171875,0.2561795711517334,0.21787235140800476,0.5889736413955688
1772458509045404700,4.56640478515625,0.40940847992897034,0.2322375625371933,0.42616790533065796
1772458509055075000,4.576074951171875,0.4572925269603729,0.3064578175544739,0.40222588181495667
1772458509075096600,4.5960966796875,0.40940847992897034,0.33997663855552673,0.10295066982507706
1772458509085734400,4.606734375,0.3519476354122162,0.28730419278144836,-0.08379705995321274
1772458509095120600,4.61612060546875,0.2513911724090576,0.2059013396501541,-0.18914192914962769
1772458509106755800,4.627755859375,0.16519992053508759,0.05746084079146385,-0.2106897532939911
1772458509115151600,4.636151611328125,0.14844051003456116,0.014365210197865963,-0.21308395266532898
1772458509125174300,4.64617431640625,0.05985504388809204,0.002394201699644327,-0.2346317619085312
1772458509135190500,4.6561904296875,0.07182604819536209,-0.07422025501728058,-0.2346317619085312
1772458509145555500,4.666555419921875,-0.023942016065120697,-0.1604115068912506,-0.23942017555236816
1772458509155218400,4.676218505859375,-0.0933738648891449,-0.304063618183136,-0.2322375625371933
1772458509165242000,4.6862421875,-0.15801730751991272,-0.36152446269989014,-0.1628057211637497
1772458509215268600,4.7362685546875,-0.4357447028160095,-0.730231523513794,-0.3711012601852417
1772458509225317600,4.746317626953125,-0.45250412821769714,-0.7709329724311829,-0.4118026793003082
1772458509235284000,4.756283935546875,-0.5027823448181152,-0.8355764150619507,-0.3926490843296051
1772458509246213600,4.767213623046875,-0.3687070608139038,-0.8092401623725891,-0.363918662071228
1772458509255284500,4.776284423828125,-0.33997663855552673,-0.8212111592292786,-0.3878606855869293
1772458509267814000,4.78881396484375,-0.22505496442317963,-0.7924807667732239,-0.26815059781074524
1772458509285366300,4.8063662109375,-0.14604631066322327,-0.6943184733390808,-0.19632454216480255
1772458509295350800,4.816350830078125,-0.07661445438861847,-0.6560112833976746,-0.035913024097681046
1772458509305396700,4.826396728515625,0.028730420395731926,-0.6153098344802856,-0.11252748221158981
1772458509315358500,4.8363583984375,0.06224924325942993,-0.608127236366272,-0.06703764945268631
1772458509325377000,4.846376953125,0.17717093229293823,-0.5171475410461426,0.043095629662275314
1772458509335381200,4.85638134765625,0.2801215946674347,-0.5027823448181152,0.0933738648891449
1772458509345736200,4.866736083984375,0.272938996553421,-0.3974374830722809,0.16998831927776337
1772458509355383600,4.876383544921875,0.31124621629714966,-0.3256114423274994,0.26096799969673157
1772458509365390000,4.88639013671875,0.363918662071228,-0.23702596127986908,0.47405192255973816
1772458509375386600,4.89638671875,0.3256114423274994,-0.17717093229293823,0.5650315880775452
1772458509406006500,4.927006591796875,0.2513911724090576,-0.021547814831137657,0.8212111592292786
1772458509427058000,4.948057861328125,0.17238251864910126,-0.090979665517807,0.545877993106842
1772458509435390700,4.956390625,0.1604115068912506,-0.1604115068912506,0.17717093229293823
1772458509445711400,4.96671142578125,0.13168109953403473,-0.2059013396501541,-0.05746084079146385
1772458509455389400,4.976389404296875,0.15322890877723694,-0.3495534360408783,-0.21787235140800476
1772458509465423000,4.986423095703125,0.24420857429504395,-0.35434186458587646,-0.1843535304069519
1772458509475384800,4.996384765625,0.19153612852096558,-0.2298433631658554,-0.21787235140800476
1772458509495375400,5.016375244140625,0.10055647045373917,0.15562310814857483,-0.42856210470199585
1772458509505405700,5.02640576171875,0.021547814831137657,0.3902548849582672,-0.4213795065879822
1772458509515381000,5.036381103515625,0.07422025501728058,0.5482721924781799,-0.2298433631658554
1772458509525387500,5.046387451171875,0.090979665517807,0.7637503147125244,-0.18914192914962769
1772458509535421700,5.056421630859375,0.1843535304069519,0.9217676520347595,-0.0694318488240242
1772458509545785600,5.06678564453125,0.20350714027881622,0.9720458984375,-0.031124621629714966
1772458509555426600,5.076426513671875,0.19153612852096558,0.9050082564353943,0.021547814831137657
1772458509566075100,5.0870751953125,0.11971008777618408,0.7757213711738586,-0.06224924325942993
1772458509575497500,5.09649755859375,0.05027823522686958,0.6751648783683777,-0.1364694982767105
1772458509588044000,5.1090439453125,0,0.5386953949928284,-0.2059013396501541
1772458509615658800,5.13665869140625,0.026336219161748886,0.33997663855552673,-0.29209262132644653
1772458509625687800,5.146687744140625,0.033518824726343155,0.30885201692581177,-0.3687070608139038
1772458509635644700,5.156644775390625,0.043095629662275314,0.49799394607543945,-0.2992752194404602
1772458509645964300,5.16696435546875,0.19393034279346466,0.5626373887062073,-0.28969839215278625
1772458509655642000,5.17664208984375,0.2082955539226532,0.6129156351089478,-0.3208230137825012
1772458509665692400,5.1866923828125,0.27054479718208313,0.524330198764801,-0.3423708379268646
1772458509675654000,5.19665380859375,0.31364041566848755,0.6057330369949341,-0.26336219906806946
1772458509685664800,5.206664794921875,0.42856210470199585,0.5650315880775452,-0.16998831927776337
1772458509695651000,5.216651123046875,0.4189853072166443,0.40701428055763245,-0.05027823522686958
1772458509715650600,5.236650634765625,0.2585737705230713,0.24899697303771973,0.1173158809542656
1772458509726273500,5.2472734375,0.2106897532939911,0.16998831927776337,0.17717093229293823
1772458509735676700,5.2566767578125,0.30885201692581177,0.19871874153614044,0.26336219906806946
1772458509747602400,5.2686025390625,0.3016694188117981,0.21547815203666687,0.363918662071228
1772458509755705300,5.276705322265625,0.15322890877723694,0.23702596127986908,0.3926490843296051
1772458509765716700,5.286716796875,0.10534487664699554,0.23942017555236816,0.40701428055763245
1772458509775709000,5.296708984375,0.07661445438861847,0.16519992053508759,0.4189853072166443
1772458509785741000,5.306740966796875,-0.002394201699644327,0.12689268589019775,0.3974374830722809
1772458509795700500,5.316700439453125,-0.021547814831137657,0.026336219161748886,0.4118026793003082
1772458509805741000,5.326740966796875,0.016759412363171577,-0.004788403399288654,0.36152446269989014
1772458509835726800,5.356726806640625,-0.11252748221158981,-0.0071826050989329815,0.14844051003456116
1772458509855752000,5.376751953125,-0.22744916379451752,0.1412578970193863,-0.004788403399288654
1772458509865786400,5.386786376953125,-0.304063618183136,0.1412578970193863,-0.05027823522686958
1772458509875756500,5.396756591796875,-0.2968810200691223,0.12210428714752197,-0.12928688526153564
1772458509886380300,5.40738037109375,-0.2968810200691223,0.16759411990642548,-0.1604115068912506
1772458509895761000,5.416760986328125,-0.3280056416988373,0.21547815203666687,-0.16998831927776337
1772458509908280800,5.42928076171875,-0.3064578175544739,0.2322375625371933,-0.22266076505184174
1772458509925790200,5.446790283203125,-0.40701428055763245,0.24181437492370605,-0.29209262132644653
1772458509935773000,5.45677294921875,-0.40222588181495667,0.24899697303771973,-0.2513911724090576
1772458509946105900,5.46710595703125,-0.45489832758903503,0.2322375625371933,-0.35913026332855225
1772458509955761400,5.476761474609375,-0.42616790533065796,0.17238251864910126,-0.26815059781074524
1772458509965767000,5.486766845703125,-0.4405331015586853,0.15801730751991272,-0.24181437492370605
1772458509985774600,5.506774658203125,-0.45489832758903503,0.047884032130241394,-0.17477671802043915
1772458510005763000,5.52676318359375,-0.4213795065879822,0,-0.15801730751991272
1772458510015757600,5.536757568359375,-0.40940847992897034,-0.10055647045373917,-0.1412578970193863
1772458510035749000,5.5567490234375,-0.40462008118629456,-0.11971008777618408,0.019153613597154617
1772458510046699500,5.567699462890625,-0.3998316824436188,-0.24181437492370605,-0.12449848651885986
1772458510055769600,5.57676953125,-0.31603461503982544,-0.24899697303771973,-0.021547814831137657
1772458510067379000,5.58837890625,-0.31603461503982544,-0.181959331035614,-0.09816227108240128
1772458510075761400,5.596761474609375,-0.2585737705230713,-0.2513911724090576,-0.038307227194309235
1772458510085768000,5.606767822265625,-0.12689268589019775,-0.16759411990642548,0
1772458510095759400,5.61675927734375,-0.17477671802043915,-0.14844051003456116,0.05027823522686958
1772458510105801500,5.626801513671875,-0.09816227108240128,-0.12689268589019775,-0.05267243832349777
1772458510125777700,5.646777587890625,0.014365210197865963,-0.15801730751991272,-0.14844051003456116
1772458510165820000,5.68681982421875,0.22505496442317963,-0.07182604819536209,-0.11013327538967133
1772458510175815400,5.6968154296875,0.17477671802043915,-0.06224924325942993,-0.12928688526153564
1772458510185853400,5.706853515625,0.20350714027881622,-0.026336219161748886,-0.21787235140800476
1772458510195835100,5.716835205078125,0.19632454216480255,-0.043095629662275314,-0.2585737705230713
1772458510206455300,5.727455322265625,0.22026655077934265,-0.13168109953403473,-0.18914192914962769
1772458510215838000,5.736837890625,0.2298433631658554,-0.07422025501728058,-0.26096799969673157
1772458510228359400,5.749359375,0.19153612852096558,-0.14844051003456116,-0.24899697303771973
1772458510235870200,5.7568701171875,0.20350714027881622,-0.07900865375995636,-0.33758243918418884
1772458510246206500,5.76720654296875,0.1843535304069519,-0.10055647045373917,-0.2585737705230713
1772458510265932300,5.786932373046875,0.090979665517807,-0.06703764945268631,-0.27054479718208313
1772458510275900400,5.796900390625,0.16759411990642548,-0.10534487664699554,-0.21547815203666687
1772458510286188500,5.8071884765625,0.11013327538967133,-0.047884032130241394,-0.12210428714752197
1772458510295923700,5.816923828125,0.11013327538967133,-0.0071826050989329815,-0.05506663769483566
1772458510305958700,5.826958740234375,0.17717093229293823,-0.05027823522686958,-0.07661445438861847
1772458510315917800,5.836917724609375,0.15322890877723694,-0.047884032130241394,-0.038307227194309235
1772458510325925400,5.84692529296875,0.15801730751991272,-0.026336219161748886,-0.12928688526153564
1772458510335928800,5.8569287109375,0.15801730751991272,-0.047884032130241394,-0.08858546614646912
1772458510346283000,5.867282958984375,0.10773907601833344,-0.09816227108240128,-0.047884032130241394
1772458510355931600,5.876931640625,0.15083470940589905,-0.10534487664699554,-0.06224924325942993
1772458510387635200,5.90863525390625,0.1388636976480484,-0.22266076505184174,0.0071826050989329815
1772458510395977700,5.916977783203125,0.12928688526153564,-0.22266076505184174,0
1772458510405999900,5.926999755859375,0.08858546614646912,-0.1628057211637497,-0.011971008032560349
1772458510416001800,5.937001708984375,0.08140286058187485,-0.1388636976480484,0.023942016065120697
1772458510426053000,5.94705322265625,0.12689268589019775,-0.22505496442317963,0.014365210197865963
1772458510436031200,5.95703125,0.12689268589019775,-0.1628057211637497,0.021547814831137657
1772458510446356500,5.9673564453125,0.10773907601833344,-0.21308395266532898,0.028730420395731926
1772458510456039000,5.977038818359375,0.090979665517807,-0.20111294090747833,0.009576806798577309
1772458510466086100,5.987086181640625,0.08140286058187485,-0.14844051003456116,-0.019153613597154617
1772458510486107000,6.00710693359375,0.040701430290937424,-0.014365210197865963,0.014365210197865963
1772458510496110800,6.01711083984375,0.090979665517807,-0.08619125932455063,-0.009576806798577309
1772458510506167000,6.0271669921875,0,0.004788403399288654,-0.06464344263076782
1772458510516141800,6.037141845703125,0.08140286058187485,-0.05985504388809204,0
1772458510526776600,6.047776611328125,0.038307227194309235,-0.038307227194309235,0.009576806798577309
1772458510536183800,6.057183837890625,0.05267243832349777,-0.038307227194309235,0.035913024097681046
1772458510556592400,6.07759228515625,-0.08379705995321274,-0.026336219161748886,-0.047884032130241394
1772458510566261200,6.08726123046875,-0.002394201699644327,-0.021547814831137657,-0.047884032130241394
1772458510586308900,6.107308837890625,-0.028730420395731926,0.08379705995321274,-0.07182604819536209
1772458510596271400,6.117271240234375,-0.07422025501728058,0.09816227108240128,0.0071826050989329815
1772458510606286800,6.127286865234375,-0.016759412363171577,0.1364694982767105,0.05027823522686958
1772458510617305300,6.138305419921875,-0.031124621629714966,0.11252748221158981,0.009576806798577309
1772458510627344100,6.14834423828125,-0.040701430290937424,0.1364694982767105,-0.016759412363171577
1772458510637314300,6.158314208984375,-0.13407529890537262,0.15083470940589905,-0.026336219161748886
1772458510647641000,6.16864111328125,-0.06464344263076782,0.1364694982767105,-0.040701430290937424
1772458510657324800,6.17832470703125,-0.08379705995321274,0.2585737705230713,-0.08379705995321274
1772458510667352800,6.188352783203125,0.0071826050989329815,0.2992752194404602,-0.028730420395731926
1772458510677328100,6.198328125,-0.031124621629714966,0.43335050344467163,-0.0071826050989329815
1772458510697325800,6.218325927734375,-0.038307227194309235,0.40462008118629456,-0.11252748221158981
1772458510708939300,6.229939208984375,-0.05027823522686958,0.35913026332855225,-0.038307227194309235
1772458510717327600,6.23832763671875,-0.07422025501728058,0.3256114423274994,-0.011971008032560349
1772458510727337500,6.24833740234375,-0.1173158809542656,0.2753331959247589,-0.08619125932455063
1772458510737319000,6.25831884765625,-0.05746084079146385,0.17956513166427612,-0.05746084079146385
1772458510747654100,6.268654052734375,-0.06703764945268631,0.2322375625371933,-0.09816227108240128
1772458510757306000,6.27830615234375,-0.0071826050989329815,0.23702596127986908,-0.15083470940589905
1772458510767327500,6.288327392578125,-0.05267243832349777,0.20111294090747833,-0.1388636976480484
1772458510797328000,6.318327880859375,-0.021547814831137657,0.26815059781074524,-0.16759411990642548
1772458510807355400,6.32835546875,-0.090979665517807,0.22744916379451752,-0.16519992053508759
1772458510817383200,6.338383056640625,-0.0694318488240242,0.16998831927776337,-0.19632454216480255
1772458510827418000,6.348418212890625,-0.08619125932455063,0.12928688526153564,-0.12689268589019775
1772458510837387300,6.35838720703125,-0.014365210197865963,0.1173158809542656,-0.1149216815829277
1772458510848322800,6.36932275390625,-0.07661445438861847,0.05985504388809204,-0.15083470940589905
1772458510857403600,6.378403564453125,-0.002394201699644327,0.033518824726343155,-0.14365209639072418
1772458510869928700,6.3909287109375,0.040701430290937424,0.019153613597154617,-0.19393034279346466
1772458510877430800,6.3984306640625,0.05506663769483566,-0.014365210197865963,-0.17717093229293823
1772458510887441000,6.40844091796875,0.08379705995321274,0.031124621629714966,-0.1412578970193863
1772458510907464000,6.4284638671875,0.1388636976480484,-0.011971008032560349,-0.17238251864910126
1772458510927445200,6.4484453125,0.07422025501728058,-0.090979665517807,-0.26336219906806946
1772458510937468000,6.458468017578125,0.043095629662275314,-0.12928688526153564,-0.14365209639072418
1772458510947800300,6.46880029296875,0.0694318488240242,-0.17717093229293823,-0.15083470940589905
1772458510957457000,6.478456787109375,0.06703764945268631,-0.2585737705230713,-0.06464344263076782
1772458510967488500,6.488488525390625,0.043095629662275314,-0.1867477297782898,-0.023942016065120697
1772458510977488100,6.498488037109375,0.05506663769483566,-0.29209262132644653,-0.038307227194309235
1772458510987507200,6.508507080078125,0.05985504388809204,-0.272938996553421,0.011971008032560349
1772458510997469700,6.5184697265625,0.12210428714752197,-0.27054479718208313,0.05027823522686958
1772458511017525000,6.53852490234375,0.05985504388809204,-0.3902548849582672,-0.047884032130241394
1772458511029156900,6.550156982421875,0.12689268589019775,-0.3016694188117981,-0.033518824726343155
1772458511047823000,6.568822998046875,0.0454898327589035,-0.3064578175544739,-0.06224924325942993
1772458511057829000,6.5788291015625,0.05985504388809204,-0.33518823981285095,0
1772458511067542000,6.5885419921875,0.040701430290937424,-0.30885201692581177,-0.05027823522686958
1772458511077496800,6.598496826171875,0.12928688526153564,-0.304063618183136,-0.028730420395731926
1772458511087500500,6.60850048828125,0.12449848651885986,-0.26096799969673157,-0.0071826050989329815
1772458511097492000,6.618491943359375,0.08140286058187485,-0.2753331959247589,0.031124621629714966
1772458511107536100,6.6285361328125,0.1628057211637497,-0.18914192914962769,-0.016759412363171577
1772458511127494100,6.648494140625,0.10773907601833344,-0.11971008777618408,-0.023942016065120697
1772458511137487400,6.6584873046875,0.12449848651885986,-0.19153612852096558,-0.004788403399288654
1772458511147817200,6.668817138671875,0.10773907601833344,-0.14844051003456116,-0.002394201699644327
1772458511157467600,6.678467529296875,0.1364694982767105,-0.0694318488240242,-0.08379705995321274
1772458511168085000,6.6890849609375,0.043095629662275314,-0.035913024097681046,-0.033518824726343155
1772458511189988400,6.71098828125,0.17717093229293823,-0.047884032130241394,-0.06703764945268631
1772458511207511800,6.72851171875,0.10295066982507706,0.009576806798577309,-0.043095629662275314
1772458511227534000,6.7485341796875,0.07900865375995636,0.028730420395731926,0.002394201699644327
1772458511237494800,6.758494873046875,0.031124621629714966,-0.0694318488240242,-0.047884032130241394
1772458511247810300,6.768810302734375,0.016759412363171577,-0.002394201699644327,0.004788403399288654
1772458511257539600,6.77853955078125,0.043095629662275314,-0.004788403399288654,-0.002394201699644327
1772458511267563500,6.7885634765625,0.047884032130241394,0.021547814831137657,0.031124621629714966
1772458511277519000,6.79851904296875,0.043095629662275314,0.05267243832349777,-0.004788403399288654
1772458511287525000,6.808525146484375,0.016759412363171577,0.09816227108240128,0.05746084079146385
1772458511297524200,6.818524169921875,0,0.0933738648891449,0.047884032130241394
1772458511307555000,6.82855517578125,-0.016759412363171577,0.1173158809542656,0.026336219161748886
1772458511317521000,6.83852099609375,0,0.15083470940589905,-0.004788403399288654
1772458511349515300,6.870515380859375,0.033518824726343155,0.1173158809542656,-0.009576806798577309
1772458511357615600,6.87861572265625,-0.043095629662275314,0.16998831927776337,-0.021547814831137657
1772458511367630800,6.888630859375,-0.07182604819536209,0.28969839215278625,-0.023942016065120697
1772458511377634300,6.89863427734375,0.023942016065120697,0.31603461503982544,-0.026336219161748886
1772458511387664400,6.908664306640625,-0.05985504388809204,0.2777273952960968,-0.05027823522686958
1772458511397634300,6.91863427734375,-0.14844051003456116,0.15801730751991272,0.0071826050989329815
1772458511407646700,6.928646728515625,-0.0694318488240242,0.2753331959247589,-0.0694318488240242
1772458511417645800,6.938645751953125,-0.06464344263076782,0.29209262132644653,0.07661445438861847
1772458511427676700,6.9486767578125,-0.14844051003456116,0.2059013396501541,-0.035913024097681046
1772458511447980800,6.968980712890625,-0.19871874153614044,0.19632454216480255,-0.1628057211637497
1772458511457664800,6.978664794921875,-0.20350714027881622,0.17956513166427612,-0.023942016065120697
1772458511467692800,6.98869287109375,-0.2082955539226532,0.14604631066322327,-0.07422025501728058
1772458511477651500,6.9986513671875,-0.19871874153614044,0.16998831927776337,-0.05746084079146385
1772458511488265500,7.009265380859375,-0.1628057211637497,0.16519992053508759,-0.11252748221158981
1772458511497690400,7.0186904296875,-0.14604631066322327,0.22026655077934265,-0.06464344263076782
1772458511510195200,7.0311953125,-0.15801730751991272,0.12210428714752197,-0.040701430290937424
1772458511517696500,7.038696533203125,-0.181959331035614,0.1388636976480484,-0.07661445438861847
1772458511527703800,7.048703857421875,-0.1173158809542656,0.18914192914962769,-0.07900865375995636
1772458511548072400,7.069072509765625,-0.1388636976480484,0.12928688526153564,-0.1364694982767105
1772458511567745500,7.08874560546875,-0.09816227108240128,0.14365209639072418,-0.09816227108240128
1772458511577741600,7.098741455078125,-0.07661445438861847,0.1604115068912506,-0.011971008032560349
1772458511587778800,7.10877880859375,-0.035913024097681046,0.1364694982767105,-0.033518824726343155
1772458511607755300,7.12875537109375,0.014365210197865963,0.15562310814857483,-0.035913024097681046
1772458511617773000,7.13877294921875,0.019153613597154617,0.15322890877723694,0.0071826050989329815
1772458511627806700,7.148806640625,0.08140286058187485,0.08379705995321274,0
1772458511637786600,7.15878662109375,0.1173158809542656,0.1388636976480484,-0.038307227194309235
1772458511657791200,7.178791259765625,0.14365209639072418,0.05746084079146385,0.023942016065120697
1772458511669457700,7.190457763671875,0.09816227108240128,0.12449848651885986,-0.08619125932455063
1772458511677791000,7.198791015625,0.1173158809542656,0.016759412363171577,-0.0694318488240242
1772458511687810800,7.208810791015625,0.14844051003456116,-0.06464344263076782,-0.08858546614646912
1772458511697799000,7.218798828125,0.040701430290937424,-0.05506663769483566,-0.11252748221158981
1772458511707821600,7.228821533203125,0.15801730751991272,-0.12928688526153564,-0.07661445438861847
1772458511717778400,7.2387783203125,0.05506663769483566,-0.15801730751991272,-0.043095629662275314
1772458511727785000,7.248784912109375,0.05267243832349777,-0.2059013396501541,0.011971008032560349
1772458511737806300,7.258806396484375,0.05985504388809204,-0.21787235140800476,0.019153613597154617
1772458511748138000,7.269137939453125,0.021547814831137657,-0.304063618183136,-0.021547814831137657
1772458511777792000,7.2987919921875,0.10773907601833344,-0.1364694982767105,-0.1388636976480484
1772458511787837700,7.308837646484375,0.09816227108240128,-0.090979665517807,-0.1388636976480484
1772458511797793300,7.318793212890625,0.11252748221158981,-0.10534487664699554,-0.17238251864910126
1772458511808403700,7.32940380859375,0.08619125932455063,-0.019153613597154617,-0.19871874153614044
1772458511817787600,7.33878759765625,0.0454898327589035,-0.004788403399288654,-0.2944868206977844
1772458511830293800,7.351293701171875,-0.033518824726343155,-0.047884032130241394,-0.3974374830722809
1772458511848126500,7.36912646484375,-0.10773907601833344,0.002394201699644327,-0.12928688526153564
1772458511887851800,7.408851806640625,-0.0694318488240242,0.08619125932455063,0.004788403399288654
1772458511897838300,7.41883837890625,-0.0071826050989329815,0.031124621629714966,0.05985504388809204
1772458511907865300,7.428865234375,-0.05746084079146385,-0.011971008032560349,0.009576806798577309
1772458511917827300,7.438827392578125,-0.07422025501728058,-0.05746084079146385,-0.002394201699644327
1772458511927860200,7.448860107421875,-0.06703764945268631,-0.06464344263076782,-0.023942016065120697
1772458511937847600,7.45884765625,-0.047884032130241394,-0.09816227108240128,-0.05746084079146385
1772458511948196900,7.46919677734375,-0.08619125932455063,0,-0.033518824726343155
1772458511957851600,7.4788515625,-0.028730420395731926,0.023942016065120697,-0.07661445438861847
1772458511968482800,7.48948291015625,-0.033518824726343155,0.033518824726343155,0
1772458511989484500,7.510484619140625,0.038307227194309235,-0.016759412363171577,-0.1412578970193863
1772458511997871400,7.518871337890625,0.05267243832349777,0.05027823522686958,-0.028730420395731926
1772458512027933200,7.54893310546875,0.021547814831137657,-0.0071826050989329815,-0.031124621629714966
1772458512037891300,7.558891357421875,0,0.014365210197865963,-0.08858546614646912
1772458512048210000,7.5692099609375,-0.026336219161748886,-0.035913024097681046,-0.014365210197865963
1772458512057886500,7.578886474609375,0.07422025501728058,-0.043095629662275314,-0.07661445438861847
1772458512067908400,7.588908447265625,0.11013327538967133,0.028730420395731926,-0.10055647045373917
1772458512087881200,7.608881103515625,0.043095629662275314,0.038307227194309235,-0.15562310814857483
1772458512107885600,7.628885498046875,0.023942016065120697,0,-0.181959331035614
1772458512117848300,7.638848388671875,0.028730420395731926,0.040701430290937424,-0.0454898327589035
1772458512128477700,7.649477783203125,0.0454898327589035,-0.021547814831137657,-0.12928688526153564
1772458512137892400,7.658892333984375,-0.0071826050989329815,0.06224924325942993,-0.11013327538967133
1772458512150740200,7.671740234375,0.009576806798577309,0.028730420395731926,-0.05267243832349777
1772458512158280400,7.679280517578125,0.05267243832349777,0.06703764945268631,-0.1412578970193863
1772458512167961300,7.68896142578125,0.0694318488240242,-0.033518824726343155,-0.12210428714752197
1772458512177939000,7.69893896484375,0,0.05267243832349777,-0.07900865375995636
1772458512207949600,7.728949462890625,-0.011971008032560349,-0.023942016065120697,-0.08140286058187485
1772458512217933000,7.73893310546875,-0.021547814831137657,-0.06464344263076782,-0.08140286058187485
1772458512227970000,7.748969970703125,0.031124621629714966,-0.038307227194309235,-0.031124621629714966
1772458512237913000,7.7589130859375,0.028730420395731926,0.0071826050989329815,-0.06464344263076782
1772458512248249300,7.769249267578125,0.0071826050989329815,-0.033518824726343155,-0.11252748221158981
1772458512257923000,7.778923095703125,-0.0454898327589035,-0.09816227108240128,-0.10773907601833344
1772458512267967000,7.788967041015625,-0.05506663769483566,-0.033518824726343155,-0.035913024097681046
1772458512288555000,7.809554931640625,0.019153613597154617,0.004788403399288654,-0.0454898327589035
1772458512309611300,7.830611328125,-0.014365210197865963,-0.002394201699644327,-0.19153612852096558
1772458512317961700,7.838961669921875,-0.038307227194309235,0.028730420395731926,-0.11013327538967133
1772458512327968000,7.848968017578125,-0.009576806798577309,0,-0.047884032130241394
1772458512337961700,7.858961669921875,0.033518824726343155,-0.019153613597154617,-0.0933738648891449
1772458512348295400,7.86929541015625,0.10773907601833344,0.002394201699644327,-0.07422025501728058
1772458512357943300,7.878943359375,0.07661445438861847,0,-0.08379705995321274
1772458512367961900,7.8889619140625,0.10534487664699554,0.07900865375995636,-0.13407529890537262
1772458512387978200,7.908978271484375,0.031124621629714966,0.004788403399288654,-0.17717093229293823
1772458512417958700,7.938958740234375,0.05985504388809204,0.009576806798577309,0.05027823522686958
1772458512427985000,7.94898486328125,0.06464344263076782,-0.040701430290937424,-0.05027823522686958
1772458512437939700,7.958939697265625,-0.040701430290937424,0.0071826050989329815,0
1772458512448864300,7.9698642578125,-0.033518824726343155,0.08619125932455063,0.016759412363171577
1772458512457955000,7.978955078125,-0.0454898327589035,0.10534487664699554,0
1772458512470454500,7.99145458984375,0.016759412363171577,-0.014365210197865963,-0.1149216815829277
1772458512477957400,7.998957275390625,-0.0694318488240242,0.05746084079146385,0
1772458512487957500,8.00895751953125,-0.0071826050989329815,0.047884032130241394,-0.08140286058187485
1772458512497946000,8.018946044921876,-0.05027823522686958,0.05027823522686958,-0.031124621629714966
1772458512527954000,8.048953857421875,0.014365210197865963,0.07661445438861847,-0.06703764945268631
1772458512537972000,8.058971923828125,-0.06224924325942993,0.07422025501728058,-0.09576806426048279
1772458512548318700,8.069318603515624,-0.021547814831137657,0.047884032130241394,-0.07661445438861847
1772458512557985500,8.078985595703125,-0.05506663769483566,0.09816227108240128,-0.06464344263076782
1772458512568004600,8.089004638671875,-0.0071826050989329815,0.11013327538967133,-0.031124621629714966
1772458512578017800,8.099017822265624,0.016759412363171577,0.06464344263076782,-0.09576806426048279
1772458512588057000,8.10905712890625,0.011971008032560349,0.11013327538967133,-0.047884032130241394
1772458512608684000,8.12968408203125,-0.05506663769483566,0.0694318488240242,-0.07661445438861847
1772458512629727700,8.150727783203125,0.040701430290937424,0.10295066982507706,-0.05985504388809204
1772458512648462800,8.169462890625,-0.0454898327589035,0.1173158809542656,-0.07661445438861847
1772458512658169900,8.179169921875,-0.028730420395731926,0.16759411990642548,-0.1364694982767105
1772458512668208600,8.189208740234376,0.0071826050989329815,0.10295066982507706,-0.08858546614646912
1772458512678206500,8.19920654296875,-0.07661445438861847,0.17477671802043915,-0.07900865375995636
1772458512688219600,8.2092197265625,-0.12928688526153564,0.16759411990642548,-0.0933738648891449
1772458512698242800,8.219242919921875,-0.016759412363171577,0.14365209639072418,-0.047884032130241394
1772458512708279300,8.229279296875,-0.06224924325942993,0.09576806426048279,-0.026336219161748886
1772458512718253800,8.23925390625,-0.12449848651885986,0.06703764945268631,-0.026336219161748886
1772458512738298600,8.259298583984375,-0.035913024097681046,0.15801730751991272,0.026336219161748886
1772458512748651800,8.26965185546875,-0.08140286058187485,0.181959331035614,-0.031124621629714966
1772458512758315800,8.279315673828124,-0.0933738648891449,0.12449848651885986,-0.1173158809542656
1772458512768335400,8.28933544921875,-0.10055647045373917,0.06224924325942993,-0.08140286058187485
1772458512788377300,8.30937744140625,-0.0933738648891449,0.023942016065120697,-0.14365209639072418
1772458512798357500,8.319357421875,-0.1412578970193863,0.08619125932455063,-0.1364694982767105
1772458512858435300,8.379435302734375,-0.3280056416988373,-0.13168109953403473,0
1772458512868472300,8.389472412109376,-0.31603461503982544,-0.15801730751991272,-0.038307227194309235
1772458512878444800,8.39944482421875,-0.3519476354122162,-0.14604631066322327,-0.05027823522686958
1772458512898475000,8.41947509765625,-0.22505496442317963,-0.1412578970193863,0
1772458512908522500,8.4295224609375,-0.043095629662275314,0.004788403399288654,0.05746084079146385
1772458512918503200,8.439503173828125,0.13168109953403473,0.1149216815829277,-0.014365210197865963
1772458512928528000,8.44952783203125,0.1843535304069519,0.2992752194404602,-0.009576806798577309
1772458512948914700,8.469914794921875,0.5027823448181152,0.3998316824436188,0.05506663769483566
1772458512998650400,8.519650390625,0.3974374830722809,0.17717093229293823,-0.08140286058187485
1772458513008681000,8.529680908203124,0.33997663855552673,0.2561795711517334,-0.08619125932455063
1772458513028729600,8.5497294921875,0.272938996553421,0.1149216815829277,0.031124621629714966
1772458513038709200,8.559709228515626,0.21308395266532898,0.0933738648891449,0.043095629662275314
1772458513049043200,8.570043212890624,0.24181437492370605,0.0071826050989329815,0.040701430290937424
1772458513058741500,8.579741455078125,0.21547815203666687,0.08140286058187485,0.026336219161748886
1772458513068790300,8.589790283203126,0.15322890877723694,0.08858546614646912,0.016759412363171577
1772458513078770000,8.59977001953125,0.10534487664699554,-0.002394201699644327,0.05506663769483566
1772458513088806100,8.60980615234375,-0.021547814831137657,-0.043095629662275314,0.07422025501728058
1772458513098815500,8.6198154296875,-0.002394201699644327,-0.08379705995321274,0.08619125932455063
1772458513108863200,8.62986328125,0.004788403399288654,-0.09816227108240128,0.035913024097681046
1772458513118845700,8.639845703125,-0.0454898327589035,0.06224924325942993,-0.0071826050989329815
1772458513128874500,8.64987451171875,0.06703764945268631,0.019153613597154617,-0.05027823522686958
1772458513138881300,8.65988134765625,0.05027823522686958,0.06464344263076782,-0.038307227194309235
1772458513158909200,8.6799091796875,-0.033518824726343155,0.05506663769483566,-0.035913024097681046
1772458513168940000,8.68993994140625,0.05027823522686958,0.08140286058187485,-0.014365210197865963
1772458513178950000,8.699949951171876,0.08619125932455063,0.10295066982507706,-0.05985504388809204
1772458513188995600,8.70999560546875,0.038307227194309235,0.14604631066322327,-0.014365210197865963
1772458513198978300,8.719978271484376,-0.035913024097681046,0.0694318488240242,-0.07900865375995636
1772458513209041000,8.730041015625,-0.13407529890537262,0.090979665517807,-0.21787235140800476
1772458513219025200,8.740025146484374,-0.10055647045373917,0.07182604819536209,-0.11252748221158981
1772458513229085200,8.750085205078125,-0.18914192914962769,-0.0071826050989329815,-0.15322890877723694
1772458513249404700,8.77040478515625,-0.2777273952960968,-0.06224924325942993,-0.05027823522686958
1772458513279138600,8.800138671875,-0.22266076505184174,-0.08858546614646912,-0.038307227194309235
1772458513289332700,8.810332763671875,-0.22266076505184174,-0.07661445438861847,0.026336219161748886
1772458513299188200,8.820188232421875,-0.24420857429504395,-0.05506663769483566,-0.0071826050989329815
1772458513309211100,8.830211181640625,-0.17477671802043915,-0.028730420395731926,-0.0694318488240242
1772458513319201000,8.840200927734376,-0.19393034279346466,-0.035913024097681046,-0.0071826050989329815
1772458513329256700,8.850256591796875,-0.16759411990642548,-0.026336219161748886,-0.0933738648891449
1772458513339265800,8.860265869140624,-0.1604115068912506,0,-0.0071826050989329815
1772458513349606400,8.8706064453125,-0.20350714027881622,-0.12449848651885986,-0.15562310814857483
1772458513359291600,8.880291748046876,-0.08379705995321274,-0.033518824726343155,-0.08140286058187485
1772458513379345200,8.90034521484375,0,-0.05985504388809204,-0.090979665517807
1772458513399371500,8.92037158203125,0.0933738648891449,0.06224924325942993,-0.08140286058187485
1772458513409426200,8.93042626953125,0.033518824726343155,0.014365210197865963,-0.1628057211637497
1772458513419413800,8.940413818359374,0.09816227108240128,0.033518824726343155,-0.1867477297782898
1772458513429444600,8.950444580078125,0.040701430290937424,0.05267243832349777,-0.12449848651885986
1772458513449812000,8.97081201171875,0.08858546614646912,0.12689268589019775,-0.14604631066322327
1772458513459492000,8.9804921875,0.10055647045373917,0.07182604819536209,-0.028730420395731926
1772458513489570800,9.01057080078125,0,0.004788403399288654,-0.05267243832349777
1772458513499549000,9.020548828125,0.043095629662275314,-0.009576806798577309,-0.08140286058187485
1772458513509567200,9.030567138671875,0.043095629662275314,-0.06224924325942993,-0.0933738648891449
1772458513519562800,9.040562744140624,-0.026336219161748886,-0.10534487664699554,-0.12449848651885986
1772458513529614000,9.050614013671876,-0.047884032130241394,-0.09816227108240128,-0.10534487664699554
1772458513539599600,9.060599609375,-0.0071826050989329815,-0.05746084079146385,-0.11252748221158981
1772458513549930500,9.070930419921876,-0.05985504388809204,-0.0071826050989329815,-0.05267243832349777
1772458513559613700,9.08061376953125,-0.021547814831137657,-0.08858546614646912,-0.0071826050989329815
1772458513599689700,9.120689697265625,-0.07900865375995636,-0.05027823522686958,-0.181959331035614
1772458513609747200,9.130747314453124,0.0071826050989329815,-0.05506663769483566,-0.05746084079146385
1772458513620775200,9.141775146484376,-0.019153613597154617,-0.05985504388809204,0.002394201699644327
1772458513630799400,9.15179931640625,0.028730420395731926,-0.004788403399288654,-0.0071826050989329815
1772458513640796000,9.1617958984375,-0.05506663769483566,-0.028730420395731926,0.023942016065120697
1772458513651155200,9.1721552734375,-0.040701430290937424,0.026336219161748886,-0.13168109953403473
1772458513660837000,9.181837158203125,-0.033518824726343155,-0.026336219161748886,-0.0694318488240242
1772458513670861000,9.191861083984374,-0.090979665517807,-0.038307227194309235,-0.040701430290937424
1772458513680853500,9.201853515625,-0.11013327538967133,-0.031124621629714966,-0.028730420395731926
1772458513700888300,9.221888427734376,0.011971008032560349,-0.033518824726343155,-0.08619125932455063
1772458513710923300,9.23192333984375,-0.0694318488240242,-0.06703764945268631,-0.06224924325942993
1772458513720925400,9.241925537109376,-0.033518824726343155,-0.0071826050989329815,-0.031124621629714966
1772458513730972200,9.25197216796875,-0.019153613597154617,0.026336219161748886,0.0071826050989329815
1772458513740973600,9.2619736328125,-0.021547814831137657,0.05267243832349777,-0.043095629662275314
1772458513751308000,9.27230810546875,-0.019153613597154617,0.011971008032560349,-0.0454898327589035
1772458513760994600,9.28199462890625,-0.08140286058187485,-0.004788403399288654,-0.023942016065120697
1772458513771036200,9.2920361328125,-0.026336219161748886,0.023942016065120697,-0.08619125932455063
1772458513781006800,9.3020068359375,-0.023942016065120697,0.06703764945268631,-0.15562310814857483
1772458513791021000,9.31202099609375,0.026336219161748886,-0.028730420395731926,-0.15322890877723694
1772458513811049500,9.332049560546874,0.011971008032560349,0.033518824726343155,-0.10534487664699554
1772458513821025000,9.34202490234375,-0.019153613597154617,0.0694318488240242,-0.14365209639072418
1772458513831049700,9.3520498046875,-0.016759412363171577,0.009576806798577309,-0.12928688526153564
1772458513841045000,9.362044921875,-0.011971008032560349,0.040701430290937424,-0.0694318488240242
1772458513851400700,9.372400634765626,-0.035913024097681046,0.14844051003456116,-0.11252748221158981
1772458513861090800,9.3820908203125,0.023942016065120697,0.05506663769483566,-0.19632454216480255
1772458513871125000,9.392125,0.05985504388809204,0.15083470940589905,-0.10534487664699554
1772458513881125600,9.402125732421876,-0.016759412363171577,0.08858546614646912,0.019153613597154617
1772458513891174400,9.41217431640625,0,0.09816227108240128,-0.011971008032560349
1772458513911198500,9.432198486328126,0.10295066982507706,0.17717093229293823,-0.0071826050989329815
1772458513921198600,9.442198486328126,0.05985504388809204,0.1149216815829277,-0.031124621629714966
1772458513931244800,9.452244873046874,0.14844051003456116,0.004788403399288654,-0.016759412363171577
1772458513941239600,9.462239501953125,0.17238251864910126,0.011971008032560349,0.009576806798577309
1772458513951908900,9.472908935546876,0.1173158809542656,0.0454898327589035,-0.05267243832349777
1772458513961275600,9.482275634765625,0.19153612852096558,-0.10055647045373917,-0.021547814831137657
1772458513971327500,9.492327392578124,0.181959331035614,-0.011971008032560349,-0.002394201699644327
1772458513981348000,9.50234814453125,0.20350714027881622,-0.021547814831137657,0.002394201699644327
1772458513991380200,9.512380126953126,0.1628057211637497,-0.0454898327589035,-0.038307227194309235
1772458514001391000,9.52239111328125,0.10534487664699554,-0.009576806798577309,-0.05267243832349777
1772458514021417500,9.54241748046875,0.035913024097681046,0,-0.11252748221158981
1772458514032047000,9.553047119140626,-0.021547814831137657,-0.05027823522686958,-0.05027823522686958
1772458514041432300,9.562432373046875,-0.040701430290937424,0.0694318488240242,-0.05506663769483566
1772458514053420000,9.574419921875,0.004788403399288654,0.016759412363171577,-0.05746084079146385
1772458514061490700,9.58249072265625,-0.023942016065120697,0.047884032130241394,-0.05267243832349777
1772458514071514400,9.592514404296875,-0.028730420395731926,-0.016759412363171577,-0.1388636976480484
1772458514081506600,9.602506591796875,-0.11013327538967133,0.033518824726343155,-0.08858546614646912
1772458514091554300,9.61255419921875,-0.05506663769483566,-0.023942016065120697,-0.0454898327589035
1772458514101534000,9.622533935546874,-0.05267243832349777,0.10534487664699554,-0.05027823522686958
1772458514121543000,9.64254296875,-0.08140286058187485,0.040701430290937424,-0.0454898327589035
1772458514131596800,9.6525966796875,0.014365210197865963,0.023942016065120697,-0.07661445438861847
1772458514141603000,9.66260302734375,-0.014365210197865963,0.028730420395731926,-0.05267243832349777
1772458514151940900,9.67294091796875,0.043095629662275314,0.026336219161748886,0.011971008032560349
1772458514161632300,9.68263232421875,-0.004788403399288654,0.13168109953403473,-0.08379705995321274
1772458514171679200,9.69267919921875,0.06224924325942993,0.07900865375995636,0.05027823522686958
1772458514181655300,9.7026552734375,-0.019153613597154617,0.09816227108240128,0.035913024097681046
1772458514192280800,9.71328076171875,-0.016759412363171577,0.07900865375995636,0.05267243832349777
1772458514201665800,9.722665771484374,-0.05027823522686958,0.1604115068912506,-0.0071826050989329815
1772458514214202400,9.735202392578126,-0.019153613597154617,0.11971008777618408,0.016759412363171577
1772458514231727900,9.752727783203126,-0.10295066982507706,0.21787235140800476,-0.002394201699644327
1772458514241732600,9.762732666015625,-0.10534487664699554,0.15083470940589905,-0.07422025501728058
1772458514252098300,9.773098388671874,-0.090979665517807,0.11252748221158981,-0.06703764945268631
1772458514261773600,9.782773681640625,-0.11971008777618408,0.16519992053508759,-0.05506663769483566
1772458514271794000,9.7927939453125,-0.05506663769483566,0.23942017555236816,-0.07661445438861847
1772458514281787400,9.802787353515624,-0.090979665517807,0.1604115068912506,0.014365210197865963
1772458514291853000,9.81285302734375,-0.0694318488240242,0.20111294090747833,0
1772458514301827000,9.8228271484375,-0.10295066982507706,0.17238251864910126,-0.05267243832349777
1772458514311845400,9.832845458984375,-0.12928688526153564,0.05506663769483566,0.019153613597154617
1772458514321830000,9.842829833984375,-0.08140286058187485,0.0933738648891449,0.009576806798577309
1772458514341871600,9.86287158203125,-0.043095629662275314,0.1388636976480484,-0.043095629662275314
1772458514352815900,9.87381591796875,0.0071826050989329815,0.035913024097681046,-0.002394201699644327
1772458514361900300,9.882900390625,0,0.12689268589019775,-0.10295066982507706
1772458514373591300,9.89459130859375,0.014365210197865963,0.004788403399288654,-0.05027823522686958
1772458514381954600,9.90295458984375,0.035913024097681046,0.06224924325942993,-0.10295066982507706
1772458514391986000,9.91298583984375,0.021547814831137657,0.10055647045373917,-0.023942016065120697
1772458514401970200,9.92297021484375,-0.031124621629714966,0.035913024097681046,-0.011971008032560349
1772458514412017700,9.933017578125,0.038307227194309235,0.16998831927776337,-0.12210428714752197
1772458514421994500,9.942994384765624,0.023942016065120697,0.10055647045373917,-0.040701430290937424
1772458514452374000,9.9733740234375,-0.002394201699644327,0.047884032130241394,-0.05506663769483566
1772458514462024200,9.983024169921874,0.019153613597154617,0.10534487664699554,-0.05746084079146385
1772458514472032000,9.993031982421876,-0.09816227108240128,-0.026336219161748886,-0.08619125932455063
1772458514482118400,10.003118408203125,-0.05746084079146385,0.016759412363171577,-0.06224924325942993
1772458514492055300,10.01305517578125,-0.021547814831137657,-0.05746084079146385,-0.021547814831137657
1772458514502020600,10.0230205078125,0.05746084079146385,-0.021547814831137657,0
1772458514512638200,10.03363818359375,-0.023942016065120697,-0.033518824726343155,0
1772458514522010400,10.04301025390625,-0.033518824726343155,0.011971008032560349,0.009576806798577309
1772458514534560000,10.05556005859375,0.031124621629714966,-0.004788403399288654,0.05506663769483566
1772458514572071700,10.09307177734375,0.05027823522686958,0.011971008032560349,-0.07661445438861847
1772458514582050800,10.10305078125,0.035913024097681046,0.07422025501728058,-0.1149216815829277
1772458514592059100,10.11305908203125,0.11971008777618408,-0.05506663769483566,-0.090979665517807
1772458514602034000,10.123033935546875,0.021547814831137657,0,-0.1388636976480484
1772458514612061000,10.13306103515625,0.035913024097681046,0.002394201699644327,-0.07422025501728058
1772458514622047000,10.143046875,0.05267243832349777,0.043095629662275314,-0.026336219161748886
1772458514632065000,10.15306494140625,0.07422025501728058,0.05027823522686958,-0.040701430290937424
1772458514642040800,10.163040771484376,0.05506663769483566,0.035913024097681046,-0.05746084079146385
1772458514672654000,10.193654052734376,-0.004788403399288654,-0.040701430290937424,-0.12210428714752197
1772458514682024700,10.203024658203125,-0.06464344263076782,-0.028730420395731926,-0.12928688526153564
1772458514693648600,10.214648681640625,-0.038307227194309235,0.014365210197865963,-0.090979665517807
1772458514702042600,10.223042724609375,-0.023942016065120697,0,-0.09576806426048279
1772458514712046300,10.23304638671875,-0.011971008032560349,0.016759412363171577,-0.021547814831137657
1772458514722025000,10.24302490234375,0.011971008032560349,0.0071826050989329815,-0.0454898327589035
1772458514732059000,10.253058837890626,0,-0.004788403399288654,-0.09816227108240128
1772458514742026800,10.26302685546875,0.031124621629714966,0.035913024097681046,-0.12449848651885986
1772458514752337700,10.273337646484375,0.009576806798577309,0.016759412363171577,-0.15562310814857483
1772458514792008700,10.3130087890625,-0.014365210197865963,0.10295066982507706,-0.11252748221158981
1772458514801992200,10.3229921875,-0.026336219161748886,0.05985504388809204,-0.12928688526153564
1772458514812023000,10.33302294921875,-0.05027823522686958,0.0694318488240242,-0.035913024097681046
1772458514822006500,10.343006591796875,-0.038307227194309235,0.011971008032560349,-0.05506663769483566
1772458514832627700,10.353627685546876,-0.040701430290937424,0.021547814831137657,-0.08379705995321274
1772458514842004500,10.36300439453125,-0.033518824726343155,0.10773907601833344,-0.1173158809542656
1772458514854829300,10.375829345703124,0.009576806798577309,0.0694318488240242,-0.10295066982507706
1772458514872051000,10.393051025390625,-0.011971008032560349,0.07900865375995636,-0.11013327538967133
1772458514882036200,10.4030361328125,-0.0454898327589035,0.09816227108240128,-0.09816227108240128
1772458514892064800,10.413064697265625,-0.05267243832349777,0.023942016065120697,-0.08379705995321274
1772458514902042600,10.423042724609376,-0.021547814831137657,0.05267243832349777,-0.08858546614646912
1772458514912062200,10.433062255859374,0.026336219161748886,0.026336219161748886,-0.06224924325942993
1772458514922063400,10.4430634765625,0.028730420395731926,0.08619125932455063,-0.13168109953403473
1772458514932097000,10.453096923828125,0.0454898327589035,0.011971008032560349,-0.15322890877723694
1772458514942090000,10.463090087890626,-0.014365210197865963,0.07661445438861847,-0.12928688526153564
1772458514952409300,10.473409423828125,-0.06224924325942993,0.10055647045373917,-0.181959331035614
1772458514962075100,10.4830751953125,0.07422025501728058,0.1388636976480484,-0.06224924325942993
1772458514992683500,10.51368359375,0,0.05985504388809204,-0.038307227194309235
1772458515002052600,10.523052490234376,-0.05985504388809204,0.004788403399288654,-0.0694318488240242
1772458515013715500,10.534715576171875,0.035913024097681046,0.026336219161748886,-0.028730420395731926
1772458515022049000,10.543049072265624,0.06224924325942993,0.011971008032560349,-0.011971008032560349
1772458515032070000,10.55306982421875,-0.0454898327589035,0.10773907601833344,-0.05985504388809204
1772458515042061000,10.56306103515625,0.08140286058187485,0.038307227194309235,-0.09576806426048279
1772458515052436000,10.57343603515625,0.014365210197865963,-0.009576806798577309,-0.14844051003456116
1772458515062144800,10.583144775390625,0.004788403399288654,0.07182604819536209,-0.031124621629714966
1772458515092182800,10.613182861328125,0.07182604819536209,-0.014365210197865963,-0.021547814831137657
1772458515102140000,10.623139892578125,0.05506663769483566,-0.019153613597154617,-0.038307227194309235
1772458515112162000,10.633162109375,0.016759412363171577,0.004788403399288654,-0.019153613597154617
1772458515122131000,10.643130859375,0.05267243832349777,-0.06703764945268631,-0.05506663769483566
1772458515132148700,10.653148681640625,-0.0071826050989329815,-0.040701430290937424,-0.016759412363171577
1772458515142107100,10.663107177734375,-0.014365210197865963,-0.009576806798577309,-0.028730420395731926
1772458515153022700,10.674022705078125,0.0071826050989329815,0,-0.023942016065120697
1772458515162132200,10.68313232421875,0.021547814831137657,0.05746084079146385,-0.023942016065120697
1772458515174684200,10.69568408203125,0.004788403399288654,0.021547814831137657,-0.028730420395731926
1772458515212282000,10.7332822265625,0.05027823522686958,0.08619125932455063,-0.09576806426048279
1772458515222241300,10.7432412109375,-0.021547814831137657,0.038307227194309235,-0.040701430290937424
1772458515232235800,10.75323583984375,0.033518824726343155,0.08379705995321274,-0.0454898327589035
1772458515242218500,10.763218505859374,0.043095629662275314,0.10773907601833344,-0.10534487664699554
1772458515252595700,10.773595703125,-0.021547814831137657,0.06224924325942993,-0.08858546614646912
1772458515262230800,10.783230712890624,0.033518824726343155,0.08140286058187485,-0.014365210197865963
1772458515272244200,10.793244140625,0.019153613597154617,0.05746084079146385,-0.004788403399288654
1772458515282218000,10.803218017578125,0.035913024097681046,0.0071826050989329815,-0.0694318488240242
1772458515312860700,10.833860595703126,-0.05267243832349777,-0.035913024097681046,-0.023942016065120697
1772458515322229200,10.843229248046875,-0.002394201699644327,0.019153613597154617,-0.011971008032560349
1772458515333855500,10.85485546875,0.038307227194309235,0.07182604819536209,0.021547814831137657
1772458515342225400,10.863225341796875,0.07661445438861847,0.090979665517807,0.016759412363171577
1772458515352575700,10.87357568359375,0.05506663769483566,0.11013327538967133,-0.05506663769483566
1772458515362241000,10.883240966796874,-0.016759412363171577,0.014365210197865963,-0.016759412363171577
1772458515372304400,10.893304443359375,0.09576806426048279,-0.004788403399288654,-0.043095629662275314
1772458515382303200,10.90330322265625,0.033518824726343155,0.07661445438861847,-0.06224924325942993
1772458515402374000,10.923373779296876,0.08858546614646912,-0.011971008032560349,-0.05985504388809204
1772458515412408600,10.93340869140625,0.021547814831137657,0.033518824726343155,-0.08858546614646912
1772458515422353200,10.943353271484375,0.05506663769483566,0.019153613597154617,-0.09816227108240128
1772458515432369400,10.953369384765624,0.08858546614646912,0.07422025501728058,-0.10534487664699554
1772458515442369800,10.963369873046876,0.028730420395731926,0.06224924325942993,-0.12210428714752197
1772458515452742000,10.973741943359375,0.07182604819536209,0.014365210197865963,-0.07182604819536209
1772458515462383600,10.983383544921875,0.06703764945268631,0,-0.11252748221158981
1772458515473010200,10.99401025390625,0.023942016065120697,0.035913024097681046,-0.0694318488240242
1772458515482385000,11.003385009765625,0.011971008032560349,-0.028730420395731926,-0.16998831927776337
1772458515494904800,11.01590478515625,-0.014365210197865963,0.002394201699644327,-0.13168109953403473
1772458515512416000,11.033416015625,0.090979665517807,-0.0694318488240242,-0.08619125932455063
1772458515522401000,11.043401123046875,-0.05267243832349777,-0.038307227194309235,-0.004788403399288654
1772458515532440600,11.053440673828124,0.028730420395731926,-0.08858546614646912,-0.05746084079146385
1772458515542392000,11.06339208984375,0.07900865375995636,0.002394201699644327,-0.016759412363171577
1772458515552725200,11.073725341796875,0.08140286058187485,-0.033518824726343155,-0.0694318488240242
1772458515562397200,11.083397216796875,0.08379705995321274,0.031124621629714966,-0.0694318488240242
1772458515572437200,11.093437255859374,0.12210428714752197,-0.043095629662275314,-0.026336219161748886
1772458515582393600,11.1033935546875,0.1628057211637497,0.047884032130241394,-0.10773907601833344
1772458515592437500,11.1134375,0.16998831927776337,-0.021547814831137657,0.002394201699644327
1772458515602440400,11.1234404296875,0.12449848651885986,-0.019153613597154617,-0.0071826050989329815
1772458515633072600,11.15407275390625,0.14365209639072418,-0.05746084079146385,-0.06703764945268631
1772458515642439400,11.163439453125,0.16519992053508759,-0.0694318488240242,-0.090979665517807
1772458515654427400,11.175427490234375,0.0454898327589035,-0.002394201699644327,-0.08140286058187485
1772458515662498300,11.183498291015624,0.038307227194309235,-0.047884032130241394,-0.19153612852096558
1772458515672538400,11.193538330078125,0.040701430290937424,-0.004788403399288654,-0.22744916379451752
1772458515682523000,11.20352294921875,0.043095629662275314,-0.047884032130241394,-0.19153612852096558
1772458515692572000,11.213572021484374,-0.043095629662275314,-0.019153613597154617,-0.304063618183136
1772458515702514700,11.2235146484375,-0.033518824726343155,0.0071826050989329815,-0.22505496442317963
1772458515712528400,11.2335283203125,-0.08379705995321274,0.009576806798577309,-0.26096799969673157
1772458515732526600,11.253526611328125,-0.0694318488240242,0.009576806798577309,-0.1604115068912506
1772458515742494000,11.263493896484375,-0.035913024097681046,0.05746084079146385,-0.24420857429504395
1772458515752826000,11.273826171875,-0.08379705995321274,0.035913024097681046,-0.18914192914962769
1772458515762485200,11.2834853515625,-0.08140286058187485,0.002394201699644327,-0.15083470940589905
1772458515772537600,11.29353759765625,-0.06224924325942993,0.0454898327589035,-0.16519992053508759
1772458515782508500,11.303508544921876,-0.11971008777618408,0.07661445438861847,-0.14365209639072418
1772458515793133800,11.3141337890625,-0.07661445438861847,0.05746084079146385,-0.1628057211637497
1772458515802490400,11.323490478515625,-0.0933738648891449,0.009576806798577309,-0.15083470940589905
1772458515815014400,11.336014404296876,-0.035913024097681046,0.021547814831137657,-0.2346317619085312
1772458515832558600,11.35355859375,-0.043095629662275314,0.05506663769483566,0.0454898327589035
1772458515842483500,11.3634833984375,0.014365210197865963,-0.023942016065120697,-0.026336219161748886
1772458515852827400,11.373827392578125,0.05506663769483566,-0.047884032130241394,0.016759412363171577
1772458515862460400,11.38346044921875,0.038307227194309235,-0.047884032130241394,-0.014365210197865963
1772458515872494000,11.393494140625,0.10534487664699554,-0.0454898327589035,0.043095629662275314
1772458515882505500,11.40350537109375,0.13168109953403473,-0.021547814831137657,0.040701430290937424
1772458515892539400,11.413539306640626,0.12928688526153564,0.011971008032560349,0.035913024097681046
1772458515902502000,11.423501953125,0.10295066982507706,-0.002394201699644327,0.021547814831137657
1772458515912553700,11.4335537109375,0.1149216815829277,0.047884032130241394,0.05506663769483566
1772458515942572800,11.46357275390625,0.1364694982767105,0.028730420395731926,0.12210428714752197
1772458515953507800,11.4745078125,0.09576806426048279,-0.040701430290937424,0.06703764945268631
1772458515962572300,11.483572265625,0.05985504388809204,0,0.014365210197865963
1772458515974196200,11.4951962890625,-0.05746084079146385,-0.0694318488240242,-0.06703764945268631
1772458515982571800,11.50357177734375,-0.0933738648891449,-0.10055647045373917,-0.08379705995321274
1772458515992589800,11.51358984375,-0.12449848651885986,-0.043095629662275314,-0.14365209639072418
1772458516002556200,11.52355615234375,-0.16998831927776337,0,-0.24420857429504395
1772458516012584400,11.53358447265625,-0.15322890877723694,0.06224924325942993,-0.2849099934101105
1772458516022582300,11.543582275390625,-0.26336219906806946,0.14604631066322327,-0.2968810200691223
1772458516042606000,11.563606201171876,-0.1628057211637497,0.31603461503982544,-0.3495534360408783
1772458516052953300,11.573953369140625,-0.07182604819536209,0.4189853072166443,-0.2801215946674347
1772458516062597400,11.583597412109375,0,0.4405331015586853,-0.2968810200691223
1772458516072620800,11.593620849609374,-0.0454898327589035,0.47405192255973816,-0.24899697303771973
1772458516082587600,11.603587646484375,-0.06464344263076782,0.40222588181495667,-0.2346317619085312
1772458516092619000,11.613618896484375,-0.028730420395731926,0.3208230137825012,-0.19393034279346466
1772458516102563800,11.623563720703125,-0.043095629662275314,0.05985504388809204,-0.05267243832349777
1772458516113189600,11.634189697265626,0.06224924325942993,0.07900865375995636,0.05746084079146385
1772458516122565400,11.6435654296875,0.002394201699644327,-0.17717093229293823,0.12689268589019775
1772458516135090200,11.656090087890625,0.11252748221158981,-0.272938996553421,0.12928688526153564
1772458516152919800,11.673919921875,0.05027823522686958,-0.33518823981285095,0.07900865375995636
1772458516162578200,11.683578125,0.2059013396501541,-0.33997663855552673,0.0694318488240242
1772458516172621600,11.69362158203125,0.1364694982767105,-0.33039984107017517,-0.014365210197865963
1772458516182566000,11.70356591796875,0.1388636976480484,-0.19871874153614044,-0.13407529890537262
1772458516192583700,11.713583740234375,0.1628057211637497,-0.1412578970193863,-0.1628057211637497
1772458516202559200,11.723559326171875,0.11971008777618408,-0.1173158809542656,-0.1412578970193863
1772458516212642600,11.733642578125,0.0454898327589035,-0.090979665517807,-0.16998831927776337
1772458516222626600,11.74362646484375,0.10534487664699554,0.019153613597154617,-0.26336219906806946
1772458516232641300,11.753641357421875,0.08858546614646912,0.12928688526153564,-0.24420857429504395
1772458516242608000,11.763608154296875,0.0694318488240242,0.13168109953403473,-0.1604115068912506
1772458516273276000,11.79427587890625,0.031124621629714966,0.12449848651885986,0
1772458516282621200,11.80362109375,0.047884032130241394,0.08140286058187485,0.08858546614646912
1772458516294289000,11.815288818359376,0.06464344263076782,0.05746084079146385,0.16998831927776337
1772458516302635800,11.8236357421875,0.11252748221158981,-0.08379705995321274,0.16759411990642548
1772458516312682000,11.833681884765625,0.0933738648891449,-0.18914192914962769,0.09816227108240128
1772458516322664000,11.843663818359374,0,-0.24899697303771973,0.028730420395731926
1772458516332712200,11.853712158203125,-0.016759412363171577,-0.24899697303771973,0.0694318488240242
1772458516342661600,11.86366162109375,-0.021547814831137657,-0.19871874153614044,0
1772458516352999000,11.8739990234375,-0.05027823522686958,-0.24660277366638184,-0.047884032130241394
1772458516372701200,11.893701171875,-0.09576806426048279,-0.05985504388809204,-0.0933738648891449
1772458516382641200,11.90364111328125,-0.1388636976480484,-0.05506663769483566,-0.0933738648891449
1772458516392659700,11.91365966796875,-0.1173158809542656,0,-0.11013327538967133
1772458516402621200,11.92362109375,-0.08619125932455063,0.07661445438861847,-0.05746084079146385
1772458516412677400,11.933677490234375,-0.0071826050989329815,0.13168109953403473,-0.019153613597154617
1772458516422621700,11.94362158203125,0,0.07182604819536209,-0.06703764945268631
1772458516433244000,11.954243896484375,0.011971008032560349,0.035913024097681046,-0.047884032130241394
1772458516442599200,11.96359912109375,0.016759412363171577,-0.011971008032560349,0
1772458516455423500,11.976423583984374,0.0454898327589035,-0.040701430290937424,0.0454898327589035
1772458516482599000,12.003598876953125,0.021547814831137657,-0.19632454216480255,0.023942016065120697
1772458516492641800,12.013641845703125,-0.016759412363171577,-0.22505496442317963,-0.10295066982507706
1772458516502597600,12.02359765625,-0.011971008032560349,-0.31124621629714966,-0.019153613597154617
1772458516512637700,12.0336376953125,0.05027823522686958,-0.304063618183136,0.05267243832349777
1772458516522612000,12.043612060546875,-0.019153613597154617,-0.3734954595565796,-0.0454898327589035
1772458516532655600,12.053655517578125,-0.028730420395731926,-0.27054479718208313,-0.0454898327589035
1772458516542630000,12.0636298828125,0.043095629662275314,-0.24660277366638184,-0.0933738648891449
1772458516552962600,12.073962646484375,0.028730420395731926,-0.23702596127986908,-0.08140286058187485
1772458516562640000,12.083639892578125,-0.009576806798577309,-0.2753331959247589,0.019153613597154617
1772458516582636000,12.103635986328126,-0.021547814831137657,-0.12449848651885986,-0.1388636976480484
1772458516593271800,12.114271728515625,-0.06224924325942993,-0.021547814831137657,-0.1149216815829277
1772458516602639600,12.1236396484375,-0.1388636976480484,0.043095629662275314,-0.14365209639072418
1772458516614275300,12.135275390625,-0.11013327538967133,0.10773907601833344,-0.11013327538967133
1772458516625676300,12.14667626953125,-0.07900865375995636,0.12210428714752197,-0.08858546614646912
1772458516635704300,12.156704345703124,-0.12689268589019775,0.12210428714752197,-0.016759412363171577
1772458516645668900,12.1666689453125,-0.21547815203666687,0.15562310814857483,-0.08619125932455063
1772458516656026600,12.177026611328126,-0.1867477297782898,0.15562310814857483,0.004788403399288654
1772458516665682400,12.186682373046875,-0.2322375625371933,0.15562310814857483,0.002394201699644327
1772458516695699700,12.21669970703125,-0.2082955539226532,0.028730420395731926,-0.07422025501728058
1772458516705654500,12.226654541015625,-0.2968810200691223,-0.011971008032560349,-0.09576806426048279
1772458516715670000,12.236669921875,-0.22026655077934265,-0.09576806426048279,0.002394201699644327
1772458516725631700,12.2466318359375,-0.17477671802043915,-0.021547814831137657,-0.043095629662275314
1772458516735664000,12.2566640625,-0.2082955539226532,-0.019153613597154617,0.043095629662275314
1772458516745611000,12.266611083984374,-0.12928688526153564,-0.0694318488240242,-0.023942016065120697
1772458516756575500,12.277575439453125,-0.14844051003456116,0,-0.033518824726343155
1772458516765631500,12.286631591796874,-0.08858546614646912,-0.0071826050989329815,-0.11252748221158981
1772458516778167300,12.299167236328126,-0.06224924325942993,0.031124621629714966,-0.10773907601833344
1772458516795699000,12.316698974609375,-0.06464344263076782,-0.0071826050989329815,-0.13407529890537262
1772458516805660400,12.326660400390624,-0.11971008777618408,0.047884032130241394,-0.16519992053508759
1772458516815708700,12.336708740234375,-0.033518824726343155,0.08858546614646912,-0.23702596127986908
1772458516825669400,12.34666943359375,-0.10295066982507706,0.07661445438861847,-0.1173158809542656
1772458516835699000,12.356698974609374,0.002394201699644327,0.12689268589019775,-0.10773907601833344
1772458516845682000,12.366681884765624,0,0.1604115068912506,-0.1412578970193863
1772458516856039200,12.3770390625,0.009576806798577309,0.12928688526153564,-0.15562310814857483
1772458516865688800,12.386688720703125,0.016759412363171577,0.19153612852096558,-0.10295066982507706
1772458516875716400,12.39671630859375,0.031124621629714966,0.15801730751991272,-0.08858546614646912
1772458516895730400,12.41673046875,-0.038307227194309235,0.1412578970193863,-0.12689268589019775
1772458516905683200,12.42668310546875,-0.08858546614646912,0.10773907601833344,-0.14365209639072418
1772458516916310500,12.437310546875,-0.09576806426048279,0.1628057211637497,-0.08858546614646912
1772458516925671700,12.446671630859376,-0.023942016065120697,0.11252748221158981,-0.05985504388809204
1772458516937350000,12.458349853515625,-0.05985504388809204,0.1173158809542656,-0.05746084079146385
1772458516945695000,12.466695068359375,-0.08140286058187485,0.004788403399288654,-0.15322890877723694
1772458516956026000,12.477026123046874,-0.0454898327589035,0.09576806426048279,-0.14365209639072418
1772458516965675500,12.486675537109376,-0.07422025501728058,0.21787235140800476,-0.08140286058187485
1772458516975708200,12.496708251953125,-0.07182604819536209,0.10773907601833344,-0.13407529890537262
1772458516985654500,12.506654541015624,-0.05506663769483566,0.14844051003456116,-0.16759411990642548
1772458517005648600,12.526648681640625,-0.038307227194309235,0.17238251864910126,-0.21308395266532898
1772458517015706000,12.5367060546875,-0.06224924325942993,0.2537853717803955,-0.09816227108240128
1772458517025654800,12.54665478515625,-0.1149216815829277,0.15562310814857483,0.019153613597154617
1772458517035810300,12.556810302734375,-0.043095629662275314,0.17477671802043915,0.0071826050989329815
1772458517045662000,12.566661865234375,-0.1149216815829277,0.12689268589019775,-0.10534487664699554
1772458517055999200,12.576999267578126,-0.11013327538967133,0.19871874153614044,-0.09816227108240128
1772458517065661200,12.5866611328125,-0.2561795711517334,0.08619125932455063,-0.18914192914962769
1772458517076324900,12.597324951171874,-0.17956513166427612,0.028730420395731926,-0.1149216815829277
1772458517085666600,12.60666650390625,-0.21547815203666687,0.0454898327589035,-0.06464344263076782
1772458517098182100,12.61918212890625,-0.07900865375995636,-0.05746084079146385,-0.090979665517807
1772458517115735800,12.63673583984375,0.16998831927776337,-0.023942016065120697,-0.3208230137825012
1772458517125686300,12.646686279296874,0.21787235140800476,-0.06703764945268631,-0.22744916379451752
1772458517135729200,12.656729248046876,0.31124621629714966,-0.08619125932455063,-0.2585737705230713
1772458517145705000,12.666705078125,0.38067805767059326,-0.05506663769483566,-0.304063618183136
1772458517156068900,12.67706884765625,0.43095630407333374,-0.15562310814857483,-0.3016694188117981
1772458517165707300,12.686707275390624,0.42856210470199585,-0.20350714027881622,-0.2777273952960968
1772458517175732500,12.696732421875,0.40222588181495667,-0.14844051003456116,-0.29209262132644653
1772458517185711400,12.70671142578125,0.5099649429321289,-0.16759411990642548,-0.26336219906806946
1772458517195763000,12.716762939453124,0.49320554733276367,-0.13168109953403473,-0.17956513166427612
1772458517215727000,12.73672705078125,0.3974374830722809,-0.27054479718208313,-0.0933738648891449
1772458517225694700,12.74669482421875,0.2968810200691223,-0.3471592366695404,-0.004788403399288654
1772458517236355300,12.757355224609375,0.2944868206977844,-0.5195417404174805,0.14365209639072418
1772458517245693400,12.766693359375,0.37828385829925537,-0.45010992884635925,0.33758243918418884
1772458517257606400,12.7786064453125,0.28730419278144836,-0.4572925269603729,0.5578489899635315
1772458517265702700,12.78670263671875,0.3878606855869293,-0.3902548849582672,0.5386953949928284
1772458517275754000,12.79675390625,0.2753331959247589,-0.4381389021873474,0.5482721924781799
1772458517285713000,12.806712890625,0.2585737705230713,-0.5195417404174805,0.43095630407333374
1772458517295728000,12.81672802734375,0.22266076505184174,-0.4165911078453064,0.4572925269603729
1772458517315754000,12.83675390625,-0.12449848651885986,-0.2968810200691223,0.5674257874488831
1772458517325702400,12.846702392578125,-0.22266076505184174,-0.22266076505184174,0.6512228846549988
1772458517335730000,12.85672998046875,-0.38067805767059326,-0.19632454216480255,0.6751648783683777
1772458517345722600,12.86672265625,-0.5291185975074768,-0.19632454216480255,0.6799532771110535
1772458517356095000,12.877094970703125,-0.6057330369949341,-0.181959331035614,0.6607996821403503
1772458517365736000,12.88673583984375,-0.7948749661445618,-0.09816227108240128,0.47405192255973816
1772458517375897900,12.89689794921875,-0.7996633648872375,-0.05027823522686958,0.24420857429504395
1772458517385749500,12.90674951171875,-0.7469909191131592,-0.002394201699644327,0.20111294090747833
1772458517396419600,12.917419677734374,-0.646434485912323,-0.019153613597154617,0.1149216815829277
1772458517418282000,12.939281982421875,-0.3734954595565796,-0.040701430290937424,0.05506663769483566
1772458517425805600,12.9468056640625,-0.26815059781074524,0.05746084079146385,0.090979665517807
1772458517435867100,12.9568671875,-0.12928688526153564,0.009576806798577309,0.2561795711517334
1772458517445830400,12.966830322265626,-0.08619125932455063,-0.016759412363171577,0.33518823981285095
1772458517456159000,12.977158935546875,-0.06464344263076782,-0.05267243832349777,0.40462008118629456
1772458517465808000,12.986807861328124,-0.040701430290937424,-0.1149216815829277,0.42616790533065796
1772458517475865900,12.996865966796875,0.011971008032560349,-0.016759412363171577,0.24899697303771973
1772458517485815800,13.00681591796875,-0.035913024097681046,-0.1173158809542656,0.2753331959247589
1772458517495835100,13.016835205078126,0.004788403399288654,-0.038307227194309235,0.2849099934101105
1772458517525819600,13.046819580078125,0.047884032130241394,0.1412578970193863,0.31124621629714966
1772458517545824800,13.06682470703125,-0.07182604819536209,0.2082955539226532,0.05027823522686958
1772458517556814600,13.077814697265625,-0.06703764945268631,0.22505496442317963,0.011971008032560349
1772458517565860000,13.086860107421876,-0.035913024097681046,0.304063618183136,0.038307227194309235
1772458517577529000,13.098529052734374,0.002394201699644327,0.3711012601852417,-0.031124621629714966
1772458517595951900,13.116951904296876,-0.06464344263076782,0.4620809257030487,-0.20350714027881622
1772458517605910500,13.12691064453125,-0.0933738648891449,0.507570743560791,-0.24181437492370605
1772458517615943000,13.13694287109375,-0.1604115068912506,0.5961562395095825,-0.35913026332855225
1772458517636001800,13.157001708984374,-0.15322890877723694,0.727837324142456,-0.28969839215278625
1772458517645956900,13.166956787109376,-0.16519992053508759,0.9457096457481384,-0.2777273952960968
1772458517656297200,13.177297119140626,-0.07661445438861847,0.8738836050033569,-0.304063618183136
1772458517665983700,13.186983642578125,-0.13407529890537262,0.8547300100326538,-0.4213795065879822
1772458517676032300,13.1970322265625,-0.17238251864910126,0.849941611289978,-0.44771572947502136
1772458517686003500,13.20700341796875,-0.2753331959247589,0.871489405632019,-0.3711012601852417
1772458517696019500,13.21701953125,-0.2585737705230713,0.8810662031173706,-0.3232172429561615
1772458517706017800,13.227017822265625,-0.36152446269989014,0.8451532125473022,-0.2298433631658554
1772458517726035500,13.247035400390626,-0.33997663855552673,0.7565677165985107,-0.22026655077934265
1772458517738551300,13.25955126953125,-0.27054479718208313,0.6057330369949341,-0.26815059781074524
1772458517746064100,13.267064208984374,-0.2059013396501541,0.689530074596405,-0.3256114423274994
1772458517756418300,13.277418212890625,-0.2059013396501541,0.608127236366272,-0.43335050344467163
1772458517766070300,13.2870703125,-0.22744916379451752,0.5889736413955688,-0.47884035110473633
1772458517776076800,13.297076904296874,-0.22744916379451752,0.4908113479614258,-0.5841852426528931
1772458517786065000,13.30706494140625,-0.2082955539226532,0.4118026793003082,-0.5386953949928284
1772458517796097300,13.31709716796875,-0.05027823522686958,0.20350714027881622,-0.4812345504760742
1772458517806057200,13.32705712890625,0.09576806426048279,0.1867477297782898,-0.31364041566848755
1772458517816089000,13.337089111328124,0.2513911724090576,0.06703764945268631,-0.2849099934101105
1772458517836109600,13.357109619140624,0.49799394607543945,-0.1628057211637497,-0.2753331959247589
1772458517846073000,13.367072998046876,0.5123591423034668,-0.038307227194309235,-0.3758896589279175
1772458517856393500,13.3773935546875,0.5339069962501526,-0.07422025501728058,-0.4141969084739685
1772458517866081300,13.387081298828125,0.569819986820221,0.033518824726343155,-0.35673606395721436
1772458517876732000,13.39773193359375,0.6200982332229614,0.14844051003456116,-0.3878606855869293
1772458517886085000,13.407085205078126,0.6584054827690125,0.13168109953403473,-0.38067805767059326
1772458517897691000,13.41869091796875,0.6440402865409851,-0.07422025501728058,-0.33279404044151306
1772458517906412500,13.42741259765625,0.6536170840263367,-0.12449848651885986,-0.3232172429561615
1772458517916146000,13.43714599609375,0.7038952708244324,-0.42616790533065796,-0.4596867263317108
1772458517926096000,13.447095947265625,0.7015010714530945,-0.5578489899635315,-0.47644615173339844
1772458517946094300,13.46709423828125,0.5506663918495178,-0.6823474764823914,-0.40940847992897034
1772458517956466000,13.4774658203125,0.44771572947502136,-0.6631938815116882,-0.27054479718208313
1772458517966105300,13.487105224609374,0.49559974670410156,-0.6248866319656372,-0.2106897532939911
1772458517976120000,13.4971201171875,0.3687070608139038,-0.4884171485900879,-0.1412578970193863
1772458517986098700,13.5070986328125,0.31124621629714966,-0.4596867263317108,-0.06464344263076782
1772458517996124000,13.5171240234375,0.24181437492370605,-0.3998316824436188,0.05027823522686958
1772458518006087000,13.5270869140625,0.1867477297782898,-0.4596867263317108,0.0454898327589035
1772458518016087600,13.537087646484375,0.0933738648891449,-0.4118026793003082,0.019153613597154617
1772458518026067200,13.547067138671874,0.10295066982507706,-0.38546648621559143,0.14365209639072418
1772458518046070000,13.567070068359374,0.08858546614646912,-0.4357447028160095,0.13168109953403473
1772458518058889700,13.5798896484375,0.05027823522686958,-0.36152446269989014,0.181959331035614
1772458518066110000,13.58710986328125,-0.040701430290937424,-0.4357447028160095,0.040701430290937424
1772458518076144400,13.597144287109375,-0.13407529890537262,-0.4141969084739685,0.040701430290937424
1772458518086113800,13.60711376953125,-0.1867477297782898,-0.42616790533065796,0.0071826050989329815
1772458518096124400,13.61712451171875,-0.23942017555236816,-0.3878606855869293,0.021547814831137657
1772458518106140700,13.627140625,-0.23942017555236816,-0.4189853072166443,-0.004788403399288654
1772458518116170800,13.637170654296876,-0.23702596127986908,-0.37828385829925537,0.021547814831137657
1772458518126138000,13.64713818359375,-0.2585737705230713,-0.3519476354122162,0.0694318488240242
1772458518136144400,13.657144287109375,-0.35913026332855225,-0.33039984107017517,0.07900865375995636
1772458518156486400,13.677486328125,-0.3232172429561615,-0.20350714027881622,0.004788403399288654
1772458518166140000,13.687139892578125,-0.2561795711517334,-0.1628057211637497,-0.06224924325942993
1772458518176147000,13.69714697265625,-0.26575639843940735,-0.1149216815829277,-0.1388636976480484
1772458518186140700,13.707140625,-0.2968810200691223,-0.038307227194309235,-0.05746084079146385
1772458518196795100,13.717795166015625,-0.26336219906806946,0.019153613597154617,-0.05746084079146385
1772458518206140400,13.727140380859375,-0.20111294090747833,0.08379705995321274,-0.05985504388809204
1772458518217780200,13.7387802734375,-0.31603461503982544,0.15083470940589905,-0.06464344263076782
1772458518226154000,13.747154052734375,-0.19632454216480255,0.15801730751991272,-0.026336219161748886
1772458518236170800,13.757170654296875,-0.2537853717803955,0.23702596127986908,0.026336219161748886
1772458518246136300,13.76713623046875,-0.2059013396501541,0.26096799969673157,0
1772458518266129700,13.787129638671875,-0.2513911724090576,0.2944868206977844,0.07422025501728058
1772458518276164600,13.79716455078125,-0.3016694188117981,0.3878606855869293,0.10534487664699554
1772458518286123500,13.80712353515625,-0.23942017555236816,0.19632454216480255,0.15562310814857483
1772458518296139000,13.817138916015624,-0.27054479718208313,0.2825157940387726,0.07900865375995636
1772458518306117600,13.82711767578125,-0.2082955539226532,0.2585737705230713,0.047884032130241394
1772458518316160000,13.837159912109374,-0.24660277366638184,0.2753331959247589,0.05985504388809204
1772458518326122500,13.84712255859375,-0.15562310814857483,0.1867477297782898,0.06464344263076782
1772458518336130000,13.857130126953125,-0.16759411990642548,0.20350714027881622,-0.028730420395731926
1772458518346133200,13.86713330078125,-0.06224924325942993,0.10534487664699554,0.07182604819536209
1772458518357095700,13.878095703125,-0.023942016065120697,0.16998831927776337,0.11252748221158981
1772458518378659800,13.899659912109374,0.1364694982767105,0.26096799969673157,0.10055647045373917
1772458518386165800,13.907165771484374,0.18914192914962769,0.3734954595565796,0.031124621629714966
1772458518396203000,13.917203125,0.22026655077934265,0.33039984107017517,0.0933738648891449
1772458518406166300,13.927166259765626,0.3447650372982025,0.4165911078453064,0.2106897532939911
1772458518416170800,13.937170654296875,0.38067805767059326,0.4596867263317108,0.23942017555236816
1772458518426150700,13.947150634765626,0.3926490843296051,0.5339069962501526,0.17477671802043915
1772458518436197600,13.95719775390625,0.4213795065879822,0.5937620401382446,0.1149216815829277
1772458518446189600,13.967189453125,0.4572925269603729,0.5602431893348694,0.08858546614646912
1772458518456507000,13.9775068359375,0.40222588181495667,0.6153098344802856,-0.12928688526153564
1772458518466177000,13.987177001953125,0.30885201692581177,0.629675030708313,-0.19393034279346466
1772458518496180700,14.0171806640625,0.047884032130241394,0.3878606855869293,-0.31364041566848755
1772458518506161200,14.0271611328125,0.023942016065120697,0.35434186458587646,-0.44771572947502136
1772458518516802800,14.037802734375,0.0071826050989329815,0.24660277366638184,-0.4141969084739685
1772458518526149600,14.047149658203125,-0.038307227194309235,0.24420857429504395,-0.3878606855869293
1772458518537768700,14.058768798828124,-0.026336219161748886,0.16519992053508759,-0.3902548849582672
1772458518546165500,14.06716552734375,-0.004788403399288654,0.10773907601833344,-0.35913026332855225
1772458518556541000,14.077541015625,0.040701430290937424,0.08379705995321274,-0.28730419278144836
1772458518566183400,14.087183349609376,0.08140286058187485,0.12928688526153564,-0.2777273952960968
1772458518596208400,14.11720849609375,0.07661445438861847,-0.009576806798577309,-0.05985504388809204
1772458518606183200,14.12718310546875,0.22505496442317963,0.028730420395731926,-0.035913024097681046
1772458518616172800,14.1371728515625,0.1388636976480484,-0.08379705995321274,-0.011971008032560349
1772458518626174200,14.14717431640625,0.1364694982767105,-0.1412578970193863,0
1772458518636212200,14.157212158203125,0.002394201699644327,-0.2537853717803955,-0.10534487664699554
1772458518646173000,14.1671728515625,-0.028730420395731926,-0.2561795711517334,-0.10295066982507706
1772458518656486100,14.177486083984375,-0.014365210197865963,-0.2298433631658554,-0.20111294090747833
1772458518666159000,14.1871591796875,-0.028730420395731926,-0.2561795711517334,-0.11013327538967133
1772458518686177000,14.207177001953125,-0.035913024097681046,-0.2992752194404602,0.009576806798577309
1772458518698696000,14.219696044921875,-0.0694318488240242,-0.3208230137825012,-0.023942016065120697
1772458518706206000,14.2272060546875,-0.14365209639072418,-0.33758243918418884,-0.06224924325942993
1772458518716254700,14.237254638671875,-0.2322375625371933,-0.24660277366638184,-0.10295066982507706
1772458518726302000,14.247302001953125,-0.3064578175544739,-0.33279404044151306,-0.05506663769483566
1772458518736234800,14.25723486328125,-0.35673606395721436,-0.23702596127986908,0.016759412363171577
1772458518746219000,14.267218994140626,-0.31603461503982544,-0.2825157940387726,-0.028730420395731926
1772458518756586500,14.27758642578125,-0.3495534360408783,-0.24899697303771973,-0.0071826050989329815
1772458518766221300,14.28722119140625,-0.33758243918418884,-0.12210428714752197,0.016759412363171577
1772458518776269300,14.297269287109375,-0.26575639843940735,-0.05267243832349777,0.0071826050989329815
1772458518796295200,14.317295166015626,-0.1867477297782898,0.002394201699644327,-0.06224924325942993
1772458518806245000,14.3272451171875,-0.2106897532939911,0.009576806798577309,-0.031124621629714966
1772458518816273000,14.33727294921875,-0.1628057211637497,-0.0454898327589035,-0.0933738648891449
1772458518826251300,14.347251220703125,-0.19632454216480255,-0.028730420395731926,-0.11013327538967133
1772458518836926200,14.35792626953125,-0.24181437492370605,-0.2082955539226532,-0.11252748221158981
1772458518846263000,14.367262939453125,-0.15083470940589905,-0.06703764945268631,-0.043095629662275314
1772458518858227500,14.3792275390625,-0.14604631066322327,-0.19153612852096558,-0.06464344263076782
1772458518866281500,14.387281494140625,-0.038307227194309235,-0.17238251864910126,-0.23702596127986908
1772458518876331300,14.397331298828124,-0.0454898327589035,-0.19393034279346466,-0.3519476354122162
1772458518886276900,14.40727685546875,0.038307227194309235,-0.17477671802043915,-0.45489832758903503
1772458518906259200,14.42725927734375,-0.023942016065120697,-0.14365209639072418,-0.3926490843296051
1772458518916306000,14.437305908203125,-0.023942016065120697,-0.12210428714752197,-0.3280056416988373
1772458518926257700,14.447257568359374,0.08140286058187485,-0.1173158809542656,-0.2944868206977844
1772458518936280300,14.4572802734375,0.10773907601833344,-0.090979665517807,-0.15562310814857483
1772458518946272300,14.467272216796875,0.12689268589019775,-0.10295066982507706,-0.08619125932455063
1772458518956627700,14.477627685546874,0.19153612852096558,-0.06464344263076782,-0.08379705995321274
1772458518966255400,14.48725537109375,0.2322375625371933,-0.08858546614646912,-0.10295066982507706
1772458518976269800,14.497269775390626,0.19393034279346466,-0.033518824726343155,-0.17238251864910126
1772458518986233900,14.50723388671875,0.2298433631658554,-0.07661445438861847,-0.10773907601833344
1772458519006207200,14.527207275390625,0.3016694188117981,-0.038307227194309235,-0.23702596127986908
1772458519018737400,14.5397373046875,0.26575639843940735,-0.1628057211637497,-0.29209262132644653
1772458519026226000,14.547225830078125,0.24660277366638184,-0.16759411990642548,-0.26575639843940735
1772458519036260900,14.5572607421875,0.2585737705230713,-0.22505496442317963,-0.16519992053508759
1772458519046199300,14.56719921875,0.22505496442317963,-0.24660277366638184,-0.05985504388809204
1772458519056523500,14.5775234375,0.2537853717803955,-0.2106897532939911,0.019153613597154617
1772458519066199600,14.587199462890625,0.18914192914962769,-0.09816227108240128,-0.002394201699644327
1772458519076272400,14.5972724609375,0.181959331035614,-0.090979665517807,0.021547814831137657
1772458519086206500,14.60720654296875,0.1173158809542656,-0.13168109953403473,0.026336219161748886
1772458519116328700,14.63732861328125,0.19871874153614044,0,0.26815059781074524
1772458519126265000,14.64726513671875,0.14365209639072418,-0.016759412363171577,0.24899697303771973
1772458519136296000,14.6572958984375,0.1149216815829277,-0.0454898327589035,0.15801730751991272
1772458519146259000,14.667259033203125,0.10534487664699554,-0.033518824726343155,0.11971008777618408
1772458519157217000,14.678217041015625,0.12449848651885986,0.026336219161748886,0.18914192914962769
1772458519166278400,14.6872783203125,0.13168109953403473,0.07661445438861847,0.090979665517807
1772458519177908500,14.698908447265625,0.12449848651885986,0.1412578970193863,0.033518824726343155
1772458519186304300,14.70730419921875,0.12210428714752197,0.1388636976480484,0.021547814831137657
1772458519196388400,14.717388427734376,0.17717093229293823,0.12928688526153564,0.004788403399288654
1772458519236470800,14.757470703125,0.12689268589019775,0.14365209639072418,-0.1843535304069519
1772458519246417000,14.7674169921875,0.2082955539226532,0.14604631066322327,-0.1867477297782898
1772458519257166300,14.778166259765625,0.07900865375995636,0.07182604819536209,-0.22744916379451752
1772458519266403600,14.787403564453125,-0.021547814831137657,0.043095629662275314,-0.1628057211637497
1772458519276440300,14.7974404296875,-0.021547814831137657,0.004788403399288654,-0.08858546614646912
1772458519286380500,14.807380615234376,-0.002394201699644327,-0.0454898327589035,-0.043095629662275314
1772458519296401000,14.81740087890625,-0.07900865375995636,-0.011971008032560349,0.016759412363171577
1772458519306386000,14.827385986328125,-0.0694318488240242,-0.0694318488240242,-0.016759412363171577
1772458519326377000,14.847376953125,-0.10295066982507706,-0.031124621629714966,-0.08140286058187485
1772458519338894000,14.85989404296875,-0.14604631066322327,-0.05506663769483566,-0.026336219161748886
1772458519346395000,14.867394775390625,-0.21308395266532898,-0.047884032130241394,-0.004788403399288654
1772458519356750000,14.87775,-0.019153613597154617,0.033518824726343155,-0.08140286058187485
1772458519366379500,14.887379638671876,-0.08140286058187485,0.040701430290937424,-0.15083470940589905
1772458519376396000,14.89739599609375,-0.10534487664699554,0.038307227194309235,0
1772458519386375000,14.907375,-0.12449848651885986,0.009576806798577309,-0.043095629662275314
1772458519396397600,14.9173974609375,-0.14604631066322327,0.17238251864910126,-0.05746084079146385
1772458519406351000,14.92735107421875,-0.11252748221158981,0.13407529890537262,-0.026336219161748886
1772458519416369700,14.93736962890625,-0.15322890877723694,0.07900865375995636,-0.038307227194309235
1772458519426332400,14.94733251953125,-0.18914192914962769,0.15801730751991272,-0.019153613597154617
1772458519436365000,14.957364990234375,-0.19632454216480255,0.2059013396501541,-0.040701430290937424
1772458519446332400,14.96733251953125,-0.2753331959247589,0.07900865375995636,-0.10534487664699554
1772458519456692700,14.977692626953125,-0.29209262132644653,-0.0071826050989329815,0
1772458519466344200,14.98734423828125,-0.3423708379268646,0,-0.0454898327589035
1772458519476990700,14.99799072265625,-0.23702596127986908,-0.05746084079146385,-0.1628057211637497
1772458519486324500,15.007324462890624,-0.27054479718208313,0.031124621629714966,-0.2346317619085312
1772458519497985800,15.01898583984375,-0.2537853717803955,0.05506663769483566,-0.22266076505184174
1772458519506332400,15.02733251953125,-0.17717093229293823,0.05027823522686958,-0.12689268589019775
1772458519536320000,15.057320068359376,-0.10055647045373917,0.19153612852096558,0.1604115068912506
1772458519546312000,15.06731201171875,0.06703764945268631,0.12689268589019775,0.19153612852096558
1772458519556648200,15.077648193359375,0.08379705995321274,0.17717093229293823,0.17238251864910126
1772458519566273000,15.08727294921875,0.11971008777618408,0.16998831927776337,0.12210428714752197
1772458519576284400,15.097284423828125,0.07900865375995636,0.15083470940589905,0.08379705995321274
1772458519586253600,15.107253662109375,0.09816227108240128,0.1604115068912506,0.033518824726343155
1772458519596305400,15.117305419921875,0.11971008777618408,0.15322890877723694,0.014365210197865963
1772458519606247700,15.12724755859375,0.07422025501728058,0.19632454216480255,-0.07422025501728058
1772458519616287000,15.137286865234374,0.13168109953403473,0.1412578970193863,-0.0933738648891449
1772458519637947100,15.158947021484375,-0.002394201699644327,0.05267243832349777,-0.2082955539226532
1772458519647294700,15.168294677734375,0.002394201699644327,0.12928688526153564,-0.24660277366638184
1772458519660111000,15.181111083984375,0.06464344263076782,0.1173158809542656,-0.22505496442317963
1772458519667329800,15.188329833984374,0.009576806798577309,0.090979665517807,-0.24420857429504395
1772458519677361400,15.198361328125,-0.1364694982767105,0.0071826050989329815,-0.16759411990642548
1772458519687296800,15.208296875,0.038307227194309235,0.047884032130241394,-0.1628057211637497
1772458519697357000,15.218357177734376,0.011971008032560349,0.05746084079146385,-0.21787235140800476
