time,seconds_elapsed,z,y,x
1772458504921701000,0.442701171875,8.686163902282715,2.1140801906585693,3.6104562282562256
1772458504931196700,0.45219677734375,8.688557624816895,2.1499931812286377,3.5960910320281982
1772458504943822800,0.46482275390625,8.789113998413086,2.0829553604125977,3.5242648124694824
1772458504951893200,0.472893310546875,8.841787338256836,2.1499931812286377,3.5697548389434814
1772458504961942000,0.48294189453125,8.856152534484863,2.255337953567505,3.6583402156829834
1772458504971917600,0.49291748046875,8.884882926940918,2.2457611560821533,3.550601005554199
1772458504981957600,0.50295751953125,8.89685344696045,2.1356279850006104,3.6511576175689697
1772458504991939000,0.51293896484375,8.916007041931152,2.1116859912872314,3.622427225112915
1772458505001988900,0.52298876953125,8.89445972442627,2.075772762298584,3.5625722408294678
1772458505011953400,0.532953369140625,8.810662269592285,2.118868589401245,3.576937437057495
1772458505021980000,0.54297998046875,8.899248123168945,2.1092917919158936,3.581725835800171
1772458505031972400,0.552972412109375,8.901641845703125,2.032677173614502,3.6152446269989014
1772458505042332200,0.563332275390625,8.901641845703125,2.188300371170044,3.6296098232269287
1772458505051995100,0.5729951171875,8.834604263305664,2.1284453868865967,3.627215623855591
1772458505062019300,0.583019287109375,8.777143478393555,2.1499931812286377,3.5865142345428467
1772458505072002800,0.5930029296875,8.746018409729004,2.0877439975738525,3.60566782951355
1772458505082654500,0.603654541015625,8.822632789611816,2.0470423698425293,3.60566782951355
1772458505092011300,0.61301123046875,8.832210540771484,2.0590133666992188,3.6176388263702393
1772458505104518100,0.62551806640625,8.83699893951416,2.140416383743286,3.6080620288848877
1772458505112062200,0.633062255859375,8.798690795898438,2.252943754196167,3.7038300037384033
1772458505122119400,0.643119384765625,8.791508674621582,2.2170307636260986,3.758896589279175
1772458505132107800,0.653107666015625,8.789113998413086,2.1811177730560303,3.5889084339141846
1772458505142441200,0.663441162109375,8.760383605957031,2.207453966140747,3.667917013168335
1772458505152127000,0.673126953125,8.7484130859375,2.188300371170044,3.6080620288848877
1772458505162172700,0.683172607421875,8.712499618530273,2.1954829692840576,3.624821424484253
1772458505172157400,0.693157470703125,8.69334602355957,2.1978771686553955,3.5960910320281982
1772458505182173200,0.703173095703125,8.635885238647461,2.2457611560821533,3.5697548389434814
1772458505192152800,0.71315283203125,8.734047889709473,2.2002713680267334,3.5649664402008057
1772458505202185200,0.723185302734375,8.638279914855957,2.2242133617401123,3.648763418197632
1772458505212153900,0.73315380859375,8.645462036132812,2.140416383743286,3.60566782951355
1772458505222178600,0.743178466796875,8.635885238647461,2.1475989818573,3.663128614425659
1772458505232156700,0.75315673828125,8.712499618530273,2.1045033931732178,3.6990416049957275
1772458505243111000,0.76411083984375,8.695740699768066,2.049436569213867,3.6367924213409424
1772458505252161300,0.773161376953125,8.621520042419434,2.0901381969451904,3.641580820083618
1772458505263772700,0.784772705078125,8.544905662536621,2.161964178085327,3.5936968326568604
1772458505272190700,0.793190673828125,8.53532886505127,2.2433669567108154,3.6511576175689697
1772458505282225000,0.803224853515625,8.611943244934082,2.140416383743286,3.663128614425659
1772458505292204000,0.8132041015625,8.609549522399902,2.1499931812286377,3.641580820083618
1772458505302215400,0.82321533203125,8.56884765625,2.188300371170044,3.6152446269989014
1772458505312198000,0.833197998046875,8.542511940002441,2.10210919380188,3.689464807510376
1772458505322230500,0.84323046875,8.53293514251709,2.075772762298584,3.7181951999664307
1772458505332223700,0.8532236328125,8.427590370178223,2.006340980529785,3.6391866207122803
1772458505342542800,0.86354296875,8.44195556640625,2.0470423698425293,3.732560396194458
1772458505352203800,0.873203857421875,8.463502883911133,1.9967641830444336,3.708618402481079
1772458505372226600,0.8932265625,8.604761123657227,2.075772762298584,3.7660791873931885
1772458505382248400,0.90324853515625,8.614337921142578,2.0805611610412598,3.751713991165161
1772458505392232400,0.913232421875,8.556877136230469,2.030282974243164,3.73016619682312
1772458505402872300,0.923872314453125,8.583212852478027,2.0015525817871094,3.7660791873931885
1772458505412247000,0.9332470703125,8.564059257507324,2.0853497982025146,3.7612907886505127
1772458505424740900,0.945740966796875,8.671798706054688,2.0901381969451904,3.758896589279175
1772458505432298200,0.95329833984375,8.576030731201172,2.1092917919158936,3.9911341667175293
1772458505442644000,0.96364404296875,8.757989883422852,2.008735179901123,3.7660791873931885
1772458505452302300,0.97330224609375,8.547300338745117,2.1978771686553955,3.8379054069519043
1772458505462325800,0.98332568359375,8.62391471862793,2.0853497982025146,3.993528366088867
1772458505482359800,1.00335986328125,8.686163902282715,2.0877439975738525,3.9264907836914062
1772458505492332000,1.01333203125,8.631096839904785,2.1092917919158936,3.9240965843200684
1772458505502346000,1.023345947265625,8.69334602355957,2.078166961669922,4.000710964202881
1772458505512350700,1.033350830078125,8.71489429473877,2.1523873805999756,4.02465295791626
1772458505522395600,1.043395751953125,9.011775016784668,2.3367409706115723,4.338293552398682
1772458505532375800,1.053375732421875,8.418013572692871,2.097320795059204,3.9217023849487305
1772458505542706400,1.06370654296875,8.508993148803711,1.889025092124939,4.079719543457031
1772458505552386800,1.07338671875,8.576030731201172,2.094926595687866,4.10366153717041
1772458505563037700,1.08403759765625,8.767566680908203,2.1739351749420166,4.110844135284424
1772458505584051500,1.105051513671875,9.121908187866211,1.802833914756775,4.414907932281494
1772458505592419600,1.113419677734375,9.035717010498047,1.8411411046981812,4.304774761199951
1772458505602461400,1.12346142578125,8.848969459533691,1.941697597503662,4.079719543457031
1772458505612446000,1.133446044921875,8.889671325683594,1.8962076902389526,4.393360137939453
1772458505622453000,1.143452880859375,8.973467826843262,1.9704279899597168,4.331110954284668
1772458505632423200,1.153423095703125,8.98543930053711,1.9847931861877441,4.0749311447143555
1772458505642765000,1.16376513671875,9.0859956741333,2.212242364883423,4.1180267333984375
1772458505652417000,1.1734169921875,9.107542991638184,2.1978771686553955,4.02465295791626
1772458505662436900,1.183436767578125,9.035717010498047,2.0039467811584473,4.062960147857666
1772458505682449200,1.20344921875,9.016563415527344,2.1045033931732178,3.9264907836914062
1772458505702424800,1.2234248046875,9.004592895507812,2.075772762298584,3.909731388092041
1772458505712400400,1.233400390625,8.99740982055664,2.008735179901123,4.010287761688232
1772458505723040800,1.244040771484375,8.966285705566406,2.0039467811584473,3.9432501792907715
1772458505732414000,1.2534140625,8.93037223815918,1.9752163887023926,3.931279182434082
1772458505745219300,1.26621923828125,8.908824920654297,1.9273324012756348,3.9647979736328125
1772458505752742400,1.273742431640625,8.832210540771484,1.9081788063049316,3.9647979736328125
1772458505762469600,1.2834697265625,8.825027465820312,1.8818424940109253,3.9695863723754883
1772458505772437200,1.293437255859375,8.822632789611816,1.8770540952682495,3.9193081855773926
1772458505792420400,1.31342041015625,8.786720275878906,1.7908629179000854,3.9001545906066895
1772458505802504000,1.32350390625,8.729259490966797,1.8339585065841675,3.9600095748901367
1772458505812469200,1.33346923828125,8.688557624816895,1.8124107122421265,3.9240965843200684
1772458505822487000,1.343487060546875,8.734047889709473,1.86508309841156,3.9240965843200684
1772458505832472000,1.35347216796875,8.753201484680176,1.8291701078414917,3.952826976776123
1772458505842832600,1.36383251953125,8.724471092224121,1.8698714971542358,3.9815573692321777
1772458505852504800,1.3735048828125,8.746018409729004,1.8722656965255737,3.9456443786621094
1772458505862524400,1.3835244140625,8.71489429473877,1.9800047874450684,3.9240965843200684
1772458505872504800,1.3935048828125,8.724471092224121,1.9297266006469727,3.9815573692321777
1772458505883164000,1.404163818359375,8.607154846191406,1.9560627937316895,3.9887399673461914
1772458505892528400,1.4135283203125,8.69334602355957,1.8698714971542358,4.019864559173584
1772458505904154400,1.425154296875,8.664615631103516,1.8842366933822632,3.993528366088867
1772458505912548000,1.433548095703125,8.635885238647461,1.9177556037902832,3.9815573692321777
1772458505922590200,1.443590087890625,8.583212852478027,1.8507179021835327,3.9647979736328125
1772458505932558800,1.453558837890625,8.542511940002441,1.8722656965255737,3.993528366088867
1772458505942878200,1.463878173828125,8.588001251220703,1.9057846069335938,4.010287761688232
1772458505952547600,1.473547607421875,8.65743350982666,1.922544002532959,3.9432501792907715
1772458505962613800,1.48361376953125,8.65743350982666,2.0231003761291504,3.9624037742614746
1772458505972571400,1.4935712890625,8.710105895996094,1.9776105880737305,3.9863457679748535
1772458505982578000,1.503577880859375,8.62630844116211,1.9704279899597168,3.9839515686035156
1772458506002605300,1.523605224609375,8.69334602355957,1.9321208000183105,4.086902141571045
1772458506012571400,1.5335712890625,8.683769226074219,2.008735179901123,4.046200752258301
1772458506022573800,1.54357373046875,8.712499618530273,2.0015525817871094,4.050989151000977
1772458506032545000,1.553544921875,8.741230010986328,2.027888774871826,4.077325344085693
1772458506043508500,1.564508544921875,8.760383605957031,1.9847931861877441,4.077325344085693
1772458506052554500,1.573554443359375,8.707711219787598,1.9345149993896484,4.125209331512451
1772458506065053000,1.586052978515625,8.746018409729004,1.9584569931030273,4.106055736541748
1772458506072556300,1.593556396484375,8.808267593383789,1.9584569931030273,4.14915132522583
1772458506082585000,1.603585205078125,8.75080680847168,1.9632453918457031,4.082113742828369
1772458506092561700,1.613561767578125,8.638279914855957,1.944091796875,4.031835556030273
1772458506112539400,1.633539306640625,8.611943244934082,1.9512743949890137,4.031835556030273
1772458506122566100,1.643566162109375,8.683769226074219,2.0183119773864746,4.050989151000977
1772458506132547000,1.653547119140625,8.681375503540039,2.051830768585205,3.976768970489502
1772458506142863600,1.663863525390625,8.698134422302246,1.9632453918457031,4.000710964202881
1772458506152528000,1.67352783203125,8.640673637390137,1.9512743949890137,4.072536945343018
1772458506162553600,1.6835537109375,8.619126319885254,1.9800047874450684,4.065354347229004
1772458506172518700,1.6935185546875,8.619126319885254,1.900996208190918,4.041412353515625
1772458506182521300,1.703521240234375,8.621520042419434,1.9033904075622559,4.01268196105957
1772458506192514000,1.71351416015625,8.655038833618164,1.8387469053268433,4.019864559173584
1772458506203147000,1.72414697265625,8.681375503540039,1.8770540952682495,4.031835556030273
1772458506224144000,1.745143798828125,8.707711219787598,1.886630892753601,4.027047157287598
1772458506232503600,1.753503662109375,8.655038833618164,1.9081788063049316,4.077325344085693
1772458506242851600,1.7638515625,8.683769226074219,1.8507179021835327,4.067748546600342
1772458506252502800,1.773502685546875,8.71489429473877,1.9249382019042969,4.000710964202881
1772458506262503700,1.783503662109375,8.700529098510742,1.941697597503662,4.043806552886963
1772458506272476200,1.79347607421875,8.614337921142578,1.9177556037902832,4.0533833503723145
1772458506282511400,1.803511474609375,8.588001251220703,1.86508309841156,4.079719543457031
1772458506292471600,1.813471435546875,8.65982723236084,1.8746598958969116,4.101267337799072
1772458506302473000,1.823472900390625,8.530540466308594,1.8052281141281128,4.082113742828369
1772458506312444700,1.833444580078125,8.614337921142578,1.8770540952682495,4.036623954772949
1772458506332456000,1.8534560546875,8.676587104797363,1.8842366933822632,4.010287761688232
1772458506342772500,1.8637724609375,8.607154846191406,1.9321208000183105,3.97916316986084
1772458506352435500,1.873435546875,8.640673637390137,1.8914192914962769,3.9671921730041504
1772458506363068000,1.88406787109375,8.578424453735352,1.8962076902389526,4.000710964202881
1772458506372423700,1.893423583984375,8.578424453735352,1.8483237028121948,4.106055736541748
1772458506384925200,1.90592529296875,8.59997272491455,1.7525556087493896,4.10366153717041
1772458506392446700,1.91344677734375,8.53532886505127,1.802833914756775,4.01268196105957
1772458506402474800,1.923474853515625,8.549694061279297,1.8531121015548706,4.113238334655762
1772458506412439800,1.933439697265625,8.559270858764648,1.7621324062347412,4.079719543457031
1772458506432434700,1.9534345703125,8.59997272491455,1.8746598958969116,4.046200752258301
1772458506442767000,1.96376708984375,8.611943244934082,1.845929503440857,4.039018154144287
1772458506452418600,1.97341845703125,8.559270858764648,1.824381709098816,4.110844135284424
1772458506462422000,1.983422119140625,8.635885238647461,1.8531121015548706,4.067748546600342
1772458506472401400,1.9934013671875,8.616731643676758,1.8794482946395874,4.041412353515625
1772458506482481200,2.003481201171875,8.595184326171875,1.8483237028121948,4.0964789390563965
1772458506492487400,2.0134873046875,8.633491516113281,1.9057846069335938,4.072536945343018
1772458506502484200,2.023484130859375,8.645462036132812,1.944091796875,4.120420932769775
1772458506512459300,2.033459228515625,8.71489429473877,1.98958158493042,4.048594951629639
1772458506532471600,2.053471435546875,8.688557624816895,2.006340980529785,4.137180328369141
1772458506544369000,2.065368896484375,8.695740699768066,1.987187385559082,4.082113742828369
1772458506552485400,2.0734853515625,8.705317497253418,2.0374655723571777,4.141968727111816
1772458506562502400,2.08350244140625,8.7268648147583,2.0853497982025146,4.079719543457031
1772458506572520700,2.093520751953125,8.5903959274292,2.030282974243164,4.14915132522583
1772458506582491100,2.1034912109375,8.554482460021973,1.987187385559082,4.091690540313721
1772458506592484000,2.113484130859375,8.56884765625,1.941697597503662,4.027047157287598
1772458506602520600,2.1235205078125,8.494627952575684,1.8794482946395874,4.015076160430908
1772458506612508400,2.13350830078125,8.461109161376953,2.0159177780151367,3.995922565460205
1772458506632509200,2.15350927734375,8.456320762634277,1.9991583824157715,4.022258758544922
1772458506642835000,2.1638349609375,8.47786808013916,1.8531121015548706,4.060565948486328
1772458506652485400,2.1734853515625,8.482656478881836,1.7717092037200928,4.086902141571045
1772458506662481400,2.1834814453125,8.47786808013916,1.802833914756775,4.031835556030273
1772458506672485000,2.193485107421875,8.310274124145508,1.9536685943603516,3.909731388092041
1772458506683160800,2.204160888671875,8.243236541748047,1.843535304069519,3.8091750144958496
1772458506692566000,2.21356591796875,8.226476669311523,1.7956513166427612,3.821146011352539
1772458506705104400,2.2261044921875,8.11634349822998,1.6400281190872192,3.845088005065918
1772458506712673500,2.233673583984375,8.169015884399414,1.5155296325683594,3.773261785507202
1772458506732732400,2.253732421875,8.073247909545898,1.0797849893569946,3.7038300037384033
1772458506743085800,2.2640859375,8.159439086914062,0.9624691009521484,3.8067808151245117
1772458506752842800,2.2738427734375,8.133103370666504,0.8619126081466675,3.847482204437256
1772458506762823200,2.2838232421875,8.066065788269043,0.7613561153411865,3.9049429893493652
1772458506772821500,2.293821533203125,8.034940719604492,0.7326257228851318,3.907337188720703
1772458506782870800,2.303870849609375,7.965508937835693,0.689530074596405,3.907337188720703
1772458506792878600,2.313878662109375,8.04930591583252,0.6919242739677429,3.995922565460205
1772458506802901000,2.32390087890625,7.989450931549072,0.44771572947502136,4.043806552886963
1772458506812899600,2.333899658203125,7.819462776184082,0.4429273009300232,4.010287761688232
1772458506822895400,2.343895263671875,7.654263019561768,0.1412578970193863,4.180276393890381
1772458506843819300,2.3648193359375,7.544129371643066,-0.22505496442317963,4.247313976287842
1772458506852893000,2.373892822265625,7.419631004333496,-0.629675030708313,4.28322696685791
1772458506864587300,2.385587158203125,7.371747016906738,-0.7876923680305481,4.137180328369141
1772458506872963300,2.39396337890625,7.513004779815674,-0.7398083209991455,4.213795185089111
1772458506883031800,2.40403173828125,7.510610580444336,-0.6847416758537292,4.292803764343262
1772458506892999400,2.41399951171875,7.513004779815674,-0.5937620401382446,4.309563159942627
1772458506903030300,2.4240302734375,7.486668586730957,-0.5554547905921936,4.331110954284668
1772458506913031000,2.434031005859375,7.4555439949035645,-0.42856210470199585,4.398148536682129
1772458506923099400,2.444099365234375,7.47230339050293,-0.3519476354122162,4.273650169372559
1772458506933086000,2.4540859375,7.469909191131592,-0.26096799969673157,4.189853191375732
1772458506953093400,2.47409326171875,7.3669586181640625,-0.26575639843940735,4.335899353027344
1772458506963136500,2.484136474609375,7.254431247711182,-0.2298433631658554,4.417302131652832
1772458506973098000,2.494097900390625,7.19936466217041,-0.38067805767059326,4.546588897705078
1772458506983119600,2.50411962890625,7.101202011108398,-0.5841852426528931,4.7405195236206055
1772458506993113300,2.51411328125,6.8378400802612305,-0.730231523513794,4.896142482757568
1772458507003751400,2.52475146484375,6.773196697235107,-0.8475474119186401,4.862623691558838
1772458507013124600,2.53412451171875,6.641515731811523,-1.1013327836990356,4.833893299102783
1772458507025623300,2.546623291015625,6.502651691436768,-1.2090718746185303,4.7836151123046875
1772458507033145600,2.5541455078125,6.600813865661621,-1.2665326595306396,4.788403511047363
1772458507053144800,2.574144775390625,6.890512466430664,-1.3862427473068237,4.898536682128906
1772458507063144000,2.58414404296875,6.964732646942139,-1.3120225667953491,5.118803024291992
1772458507073135900,2.594135986328125,6.868964672088623,-1.278503656387329,5.2911858558654785
1772458507083154700,2.60415478515625,6.6630635261535645,-1.1324573755264282,5.5329999923706055
1772458507093111600,2.614111572265625,6.349422931671143,-0.950498104095459,5.868188381195068
1772458507103155500,2.624155517578125,6.14831018447876,-1.0749965906143188,5.944802761077881
1772458507113151200,2.634151123046875,6.04775333404541,-1.522712230682373,6.121973514556885
1772458507123169800,2.644169677734375,5.983109951019287,-1.821987509727478,6.14831018447876
1772458507133131500,2.654131591796875,5.935225963592529,-1.9393033981323242,6.217741966247559
1772458507143435300,2.664435302734375,5.870582580566406,-1.9033904075622559,6.45476770401001
1772458507163798300,2.68479833984375,5.91128396987915,-1.9800047874450684,7.024587631225586
1772458507173162500,2.69416259765625,5.808333396911621,-1.9057846069335938,7.376535415649414
1772458507184759800,2.705759765625,5.659893035888672,-1.9129672050476074,7.673416614532471
1772458507193180000,2.714179931640625,5.588066577911377,-2.0470423698425293,8.10437297821045
1772458507203216100,2.724216064453125,5.509057998657227,-2.0661959648132324,8.415618896484375
1772458507213179400,2.734179443359375,5.377377033233643,-1.9536685943603516,8.592789649963379
1772458507223184100,2.74418408203125,5.2672438621521,-2.070984363555908,8.834604263305664
1772458507233164300,2.754164306640625,5.16429328918457,-2.2385785579681396,9.078812599182129
1772458507243492000,2.7644921875,5.190629482269287,-2.2840683460235596,9.394847869873047
1772458507253156900,2.774156982421875,5.303156852722168,-2.449268341064453,9.672574996948242
1772458507273142300,2.794142333984375,5.367800235748291,-2.5306711196899414,10.374075889587402
1772458507283154200,2.804154296875,5.288791656494141,-2.715024709701538,10.6709566116333
1772458507293116000,2.814115966796875,5.161899089813232,-2.8155810832977295,10.96544361114502
1772458507303121200,2.82412109375,4.99669885635376,-2.9975404739379883,11.188104629516602
1772458507313101800,2.834101806640625,4.824316501617432,-3.1100680828094482,11.288661003112793
1772458507323725300,2.844725341796875,4.69024133682251,-3.3231520652770996,11.386823654174805
1772458507333117000,2.854116943359375,4.537012100219727,-3.5386300086975098,11.307814598083496
1772458507345987300,2.8669873046875,4.462791919708252,-3.5913026332855225,11.204863548278809
1772458507353453800,2.874453857421875,4.4077253341674805,-3.576937437057495,11.022904396057129
1772458507373270000,2.89427001953125,4.082113742828369,-3.5649664402008057,10.649409294128418
1772458507383277300,2.90427734375,3.907337188720703,-3.445256233215332,10.474632263183594
1772458507393279000,2.914279052734375,3.9025487899780273,-3.375824451446533,10.247182846069336
1772458507403317200,2.924317138671875,3.9240965843200684,-3.0621838569641113,10.170568466186523
1772458507413290500,2.93429052734375,3.883395195007324,-2.779668092727661,9.962273597717285
1772458507423305200,2.94430517578125,3.8163576126098633,-2.6431987285614014,9.849745750427246
1772458507433311000,2.95431103515625,3.6320040225982666,-2.363077163696289,9.607931137084961
1772458507443673900,2.964673828125,3.5865142345428467,-2.27209734916687,9.593565940856934
1772458507453345300,2.97434521484375,3.3638534545898438,-2.300827741622925,9.433155059814453
1772458507463363300,2.98436328125,3.181894063949585,-2.367865562438965,9.301473617553711
1772458507473364200,2.9943642578125,3.066972494125366,-2.4181437492370605,9.26795482635498
1772458507484023600,3.0050234375,2.9903578758239746,-2.4875755310058594,9.167398452758789
1772458507493404200,3.014404052734375,2.8850131034851074,-2.561795711517334,9.07641887664795
1772458507505069600,3.026069580078125,2.7437551021575928,-2.7676970958709717,9.006986618041992
1772458507513436200,3.034436279296875,2.6671407222747803,-2.846705913543701,8.983044624328613
1772458507523477200,3.044477294921875,2.650381326675415,-3.026270866394043,8.937555313110352
1772458507543821600,3.064821533203125,2.497152328491211,-3.272873640060425,8.89445972442627
1772458507553506000,3.074506103515625,2.6431987285614014,-3.35667085647583,8.887276649475098
1772458507563545000,3.084545166015625,2.717418909072876,-3.359065055847168,8.810662269592285
1772458507573530600,3.094530517578125,3.0358476638793945,-3.313575267791748,8.798690795898438
1772458507583555000,3.10455517578125,3.3423056602478027,-3.383007049560547,8.884882926940918
1772458507593550800,3.11455078125,3.4596214294433594,-3.5386300086975098,9.026140213012695
1772458507603588400,3.12458837890625,3.292027235031128,-3.6583402156829834,9.253589630126953
1772458507614606600,3.135606689453125,3.0382418632507324,-3.847482204437256,9.452308654785156
1772458507624626700,3.145626708984375,2.80361008644104,-3.9240965843200684,9.605537414550781
1772458507634640400,3.155640380859375,2.8371291160583496,-3.7828385829925537,9.634267807006836
1772458507645599700,3.166599853515625,2.8443117141723633,-3.6176388263702393,9.737217903137207
1772458507654663200,3.1756630859375,2.734178304672241,-3.3423056602478027,9.672574996948242
1772458507667165000,3.1881650390625,2.449268341064453,-3.246537446975708,9.658209800720215
1772458507674700800,3.19570068359375,2.3104045391082764,-3.0837318897247314,9.476250648498535
1772458507684755700,3.205755615234375,2.1332337856292725,-3.1244332790374756,9.3828763961792
1772458507694743000,3.215742919921875,1.9608511924743652,-3.1459810733795166,9.320627212524414
1772458507704764000,3.225763916015625,1.8315643072128296,-3.002328872680664,9.469067573547363
1772458507714762500,3.235762451171875,1.766920804977417,-2.9520506858825684,9.569623947143555
1772458507724804600,3.2458046875,1.6496049165725708,-2.8634653091430664,9.670180320739746
1772458507734801700,3.2558017578125,1.5418659448623657,-2.851494312286377,9.550470352172852
1772458507745132000,3.266132080078125,1.5442601442337036,-2.784456491470337,9.437943458557129
1772458507754814700,3.275814697265625,1.4508862495422363,-2.6839001178741455,9.373299598693848
1772458507764843300,3.28584326171875,1.5203180313110352,-2.564189910888672,9.41639518737793
1772458507774816300,3.295816162109375,1.4652514457702637,-2.5905263423919678,9.445125579833984
1772458507784850000,3.305849853515625,1.4269442558288574,-2.6240451335906982,9.430760383605957
1772458507805483800,3.32648388671875,1.3287819623947144,-2.5713725090026855,9.363722801208496
1772458507814856000,3.33585595703125,1.280897855758667,-2.4420857429504395,9.299078941345215
1772458507834889000,3.355888916015625,1.3766659498214722,-2.451662540435791,9.32302188873291
1772458507845235500,3.3662353515625,1.4987702369689941,-2.3367409706115723,9.265560150146484
1772458507854892300,3.375892333984375,1.5107412338256836,-2.2457611560821533,9.188945770263672
1772458507864892000,3.385891845703125,1.4891934394836426,-2.205059766769409,9.193734169006348
1772458507874903800,3.39590380859375,1.4532804489135742,-2.2673089504241943,9.066842079162598
1772458507884927500,3.405927490234375,1.4939818382263184,-2.315192937850952,8.999804496765137
1772458507894884000,3.415884033203125,1.4413094520568848,-2.319981336593628,8.803479194641113
1772458507904886300,3.42588623046875,1.3407529592514038,-2.4013843536376953,8.856152534484863
1772458507914876700,3.435876708984375,1.41257905960083,-2.3247697353363037,8.904036521911621
1772458507924924400,3.44592431640625,1.400607943534851,-2.3774423599243164,9.011775016784668
1772458507934894600,3.45589453125,1.359906554222107,-2.3798365592956543,8.927978515625
1772458507945212000,3.4662119140625,1.338358759880066,-2.540247917175293,9.045293807983398
1772458507954893000,3.47589306640625,1.359906554222107,-2.604891538619995,8.927978515625
1772458507965517600,3.486517578125,1.3000515699386597,-2.738966703414917,8.901641845703125
1772458507974923000,3.495923095703125,1.290474772453308,-2.786850690841675,8.992621421813965
1772458507987429600,3.5084296875,1.338358759880066,-2.7964274883270264,9.059659004211426
1772458507994941700,3.515941650390625,1.3431471586227417,-2.8850131034851074,9.035717010498047
1772458508014921700,3.535921630859375,1.5897499322891235,-2.7724854946136475,9.169792175292969
1772458508024944000,3.545944091796875,1.6376339197158813,-2.6839001178741455,9.131484985351562
1772458508034931000,3.555930908203125,1.699883222579956,-2.609679937362671,9.30386734008789
1772458508045266000,3.566265869140625,1.7334020137786865,-2.5258827209472656,9.255983352661133
1772458508054926800,3.5759267578125,1.824381709098816,-2.4396915435791016,9.215282440185547
1772458508064923400,3.58592333984375,1.9273324012756348,-2.315192937850952,9.248801231384277
1772458508074909700,3.59590966796875,2.1954829692840576,-2.3247697353363037,9.330204010009766
1772458508084926700,3.6059267578125,2.427720546722412,-2.2409727573394775,9.399636268615723
1772458508094889700,3.6158896484375,3.2082302570343018,-2.5234885215759277,9.452308654785156
1772458508104895000,3.62589501953125,3.1435868740081787,-1.9105730056762695,9.397241592407227
1772458508125534700,3.64653466796875,2.1811177730560303,-2.3080103397369385,9.105149269104004
1772458508134919400,3.65591943359375,2.0159177780151367,-2.427720546722412,9.368511199951172
1772458508146837000,3.6678369140625,2.1499931812286377,-2.3104045391082764,9.464279174804688
1772458508154940400,3.6759404296875,2.255337953567505,-2.31758713722229,9.375694274902344
1772458508164984000,3.685984130859375,2.185906171798706,-2.4827871322631836,9.399636268615723
1772458508174951700,3.69595166015625,1.9800047874450684,-2.7030537128448486,9.299078941345215
1772458508184957400,3.70595751953125,1.867477297782898,-2.808398485183716,9.222464561462402
1772458508194930000,3.715929931640625,1.8124107122421265,-2.7461493015289307,9.174580574035645
1772458508204977000,3.725976806640625,1.7764976024627686,-2.7461493015289307,9.006986618041992
1772458508214966000,3.735966064453125,1.7597382068634033,-2.741360902786255,9.105149269104004
1772458508234997800,3.755997802734375,1.7405846118927002,-2.8227639198303223,9.220070838928223
1772458508245326300,3.766326416015625,1.7405846118927002,-2.920926094055176,9.184157371520996
1772458508264984600,3.785984619140625,1.6687586307525635,-2.935291290283203,9.071630477905273
1772458508274961000,3.7959609375,1.6352397203445435,-2.8993782997131348,9.14585018157959
1772458508285596200,3.80659619140625,1.6950948238372803,-2.7988216876983643,9.117119789123535
1772458508294959400,3.81595947265625,1.7286136150360107,-2.8658595085144043,9.150638580322266
1772458508307451100,3.828451171875,1.6328455209732056,-2.8395233154296875,9.131484985351562
1772458508314971100,3.83597119140625,1.5418659448623657,-2.8993782997131348,9.090784072875977
1772458508325000000,3.846,1.5131354331970215,-2.8610711097717285,9.10993766784668
1772458508334971100,3.85597119140625,1.534683346748352,-2.8993782997131348,9.181763648986816
1772458508345293800,3.8662939453125,1.558625340461731,-2.959233283996582,9.224859237670898
1772458508354973000,3.875972900390625,1.5538369417190552,-2.9688100814819336,9.196128845214844
1772458508365004300,3.88600439453125,1.5394717454910278,-2.9712042808532715,9.121908187866211
1772458508374962400,3.89596240234375,1.4844050407409668,-3.0550012588500977,9.016563415527344
1772458508384964600,3.905964599609375,1.5155296325683594,-3.090914487838745,9.102754592895508
1772458508394951700,3.91595166015625,1.5155296325683594,-3.071760892868042,9.062053680419922
1772458508405270000,3.92627001953125,1.659181833267212,-2.978386878967285,8.990227699279785
1772458508414954200,3.935954345703125,1.6041151285171509,-2.9089550971984863,9.009381294250488
1772458508424958000,3.9459580078125,1.558625340461731,-2.9472622871398926,8.999804496765137
1772458508445891800,3.966891845703125,1.5849615335464478,-3.0095114707946777,9.093177795410156
1772458508454947000,3.975947021484375,1.5418659448623657,-3.050212860107422,9.136273384094238
1772458508466579200,3.9875791015625,1.5059528350830078,-3.066972494125366,9.126696586608887
1772458508474953700,3.99595361328125,1.558625340461731,-3.1244332790374756,9.14585018157959
1772458508484973000,4.00597314453125,1.5083470344543457,-3.1531636714935303,9.090784072875977
1772458508494941000,4.01594091796875,1.4628572463989258,-3.1076738834381104,9.105149269104004
1772458508504954600,4.02595458984375,1.4460978507995605,-3.1004912853240967,9.090784072875977
1772458508514936800,4.035936767578125,1.4628572463989258,-3.1483752727508545,9.066842079162598
1772458508524970000,4.045969970703125,1.5418659448623657,-3.155557870864868,9.160215377807617
1772458508545304600,4.0663046875,1.5729905366897583,-3.045424461364746,9.162610054016113
1772458508554989000,4.075989013671875,1.702277421951294,-2.920926094055176,9.102754592895508
1772458508565016600,4.0860166015625,1.6376339197158813,-2.8395233154296875,9.165003776550293
1772458508574979300,4.095979248046875,1.702277421951294,-2.80361008644104,9.133879661560059
1772458508584981000,4.10598095703125,1.7405846118927002,-2.7269957065582275,9.165003776550293
1772458508594952700,4.11595263671875,1.7142484188079834,-2.719813108444214,9.10993766784668
1772458508605612500,4.126612548828125,1.6496049165725708,-2.765302896499634,9.172186851501465
1772458508614988500,4.135988525390625,1.6927006244659424,-2.75812029838562,9.188945770263672
1772458508627472000,4.148471923828125,1.6496049165725708,-2.7988216876983643,9.124302864074707
1772458508634994000,4.155993896484375,1.6400281190872192,-2.875436305999756,9.105149269104004
1772458508645334000,4.166333984375,1.7357962131500244,-2.7892448902130127,9.138668060302734
1772458508665021400,4.186021484375,1.5921441316604614,-2.801215887069702,9.160215377807617
1772458508674989300,4.1959892578125,1.6160861253738403,-2.786850690841675,9.093177795410156
1772458508685006800,4.2060068359375,1.6160861253738403,-2.715024709701538,9.174580574035645
1772458508694976000,4.21597607421875,1.6304513216018677,-2.738966703414917,9.059659004211426
1772458508705001200,4.226001220703125,1.644816517829895,-2.6408045291900635,9.138668060302734
1772458508715022000,4.23602197265625,1.659181833267212,-2.736572504043579,9.081207275390625
1772458508725043000,4.24604296875,1.6831238269805908,-2.7317841053009033,9.117119789123535
1772458508735005400,4.25600537109375,1.6831238269805908,-2.6431987285614014,9.126696586608887
1772458508745335300,4.266335205078125,1.6352397203445435,-2.695871114730835,9.059659004211426
1772458508754987800,4.27598779296875,1.6065093278884888,-2.585737943649292,9.090784072875977
1772458508765623800,4.286623779296875,1.6879122257232666,-2.580949544906616,9.028534889221191
1772458508786590000,4.30758984375,1.7741034030914307,-2.5522189140319824,9.066842079162598
1772458508795009300,4.31600927734375,1.7717092037200928,-2.5067291259765625,8.93037223815918
1772458508805043700,4.326043701171875,1.8363527059555054,-2.4636335372924805,8.920795440673828
1772458508815016200,4.33601611328125,1.8411411046981812,-2.389413356781006,8.832210540771484
1772458508825031400,4.346031494140625,1.9321208000183105,-2.454056739807129,8.813055992126465
1772458508834997500,4.35599755859375,1.8387469053268433,-2.363077163696289,8.719682693481445
1772458508845348900,4.366348876953125,1.8483237028121948,-2.4636335372924805,8.753201484680176
1772458508855003100,4.376003173828125,1.9177556037902832,-2.389413356781006,8.753201484680176
1772458508865013500,4.386013427734375,1.8602946996688843,-2.449268341064453,8.678980827331543
1772458508874983400,4.3959833984375,1.9129672050476074,-2.4229321479797363,8.65743350982666
1772458508885017000,4.40601708984375,1.9249382019042969,-2.4013843536376953,8.645462036132812
1772458508894990300,4.415990234375,1.9321208000183105,-2.4444799423217773,8.69095230102539
1772458508905149700,4.426149658203125,1.9393033981323242,-2.4420857429504395,8.786720275878906
1772458508914996700,4.435996826171875,1.9393033981323242,-2.4229321479797363,8.851364135742188
1772458508947872000,4.4688720703125,1.9943699836730957,-2.4612393379211426,9.583989143371582
1772458508955404800,4.47640478515625,2.070984363555908,-2.425326347351074,9.742006301879883
1772458508965064200,4.486064208984375,2.051830768585205,-2.4013843536376953,9.955090522766113
1772458508975036200,4.4960361328125,2.1739351749420166,-2.3965959548950195,10.089165687561035
1772458508985094700,4.5060947265625,2.2002713680267334,-2.4803929328918457,10.168174743652344
1772458508995041300,4.516041259765625,2.140416383743286,-2.3726539611816406,10.091560363769531
1772458509005062100,4.526062255859375,2.1954829692840576,-2.387019157409668,10.000580787658691
1772458509015029200,4.536029296875,2.1595699787139893,-2.4013843536376953,9.84256362915039
1772458509025085400,4.54608544921875,2.1978771686553955,-2.425326347351074,9.691728591918945
1772458509045399600,4.566399658203125,2.3798365592956543,-2.2625205516815186,9.667786598205566
1772458509055070200,4.5760703125,2.434903144836426,-2.188300371170044,9.526528358459473
1772458509065120800,4.586120849609375,2.3535003662109375,-2.1763293743133545,9.378087997436523
1772458509075091700,4.596091796875,2.322375535964966,-2.1811177730560303,9.196128845214844
1772458509085729300,4.606729248046875,2.2218191623687744,-2.2625205516815186,9.090784072875977
1772458509095115500,4.616115478515625,2.161964178085327,-2.3702597618103027,9.074024200439453
1772458509106750700,4.627750732421875,2.145204782485962,-2.4133553504943848,9.071630477905273
1772458509115146500,4.636146484375,2.078166961669922,-2.3942017555236816,9.05247688293457
1772458509125169200,4.646169189453125,2.0901381969451904,-2.473210334777832,9.05247688293457
1772458509135185400,4.656185302734375,2.011129379272461,-2.5282769203186035,9.05247688293457
1772458509145550300,4.66655029296875,1.941697597503662,-2.671929121017456,9.059659004211426
1772458509155213600,4.676213623046875,1.889025092124939,-2.7054479122161865,9.131484985351562
1772458509165237000,4.686237060546875,1.7932571172714233,-2.7461493015289307,9.102754592895508
1772458509215263700,4.736263671875,1.5658079385757446,-3.1723172664642334,8.875306129455566
1772458509225312500,4.7463125,1.5155296325683594,-3.2369606494903564,8.89445972442627
1772458509235279000,4.756279052734375,1.6065093278884888,-3.2824504375457764,8.913613319396973
1772458509246208500,4.76720849609375,1.6352397203445435,-3.294421434402466,8.889671325683594
1772458509255279600,4.776279541015625,1.7046716213226318,-3.335123062133789,8.999804496765137
1772458509267809000,4.78880908203125,1.7166426181793213,-3.294421434402466,8.978256225585938
1772458509275349800,4.796349853515625,1.745373010635376,-3.313575267791748,9.059659004211426
1772458509285361200,4.806361083984375,1.8148049116134644,-3.2752678394317627,9.217676162719727
1772458509295346000,4.816345947265625,1.8914192914962769,-3.2992098331451416,9.129091262817383
1772458509305391600,4.8263916015625,1.9249382019042969,-3.292027235031128,9.174580574035645
1772458509315353600,4.836353515625,2.0231003761291504,-3.2561142444610596,9.275136947631836
1772458509325372000,4.846371826171875,2.126051187515259,-3.2417490482330322,9.32541561126709
1772458509335376400,4.85637646484375,2.1140801906585693,-3.1723172664642334,9.39245319366455
1772458509345731000,4.86673095703125,2.1523873805999756,-3.1004912853240967,9.48343276977539
1772458509355378700,4.876378662109375,2.209848165512085,-3.043030261993408,9.68694019317627
1772458509365385000,4.886385009765625,2.1715409755706787,-2.983175277709961,9.77791976928711
1772458509375381800,4.8963818359375,2.233790159225464,-2.9664158821105957,9.849745750427246
1772458509385430800,4.9064306640625,2.188300371170044,-2.8658595085144043,9.86889934539795
1772458509406001700,4.927001708984375,2.011129379272461,-2.82515811920166,10.019734382629395
1772458509427052800,4.948052734375,1.968033790588379,-3.004723072052002,9.385271072387695
1772458509435385900,4.9563857421875,1.9273324012756348,-3.1052796840667725,9.133879661560059
1772458509445706200,4.966706298828125,1.9488801956176758,-3.248931646347046,8.973467826843262
1772458509455384600,4.976384521484375,2.032677173614502,-3.308786630630493,8.990227699279785
1772458509465418000,4.98641796875,1.9800047874450684,-3.184288263320923,8.956708908081055
1772458509485390000,5.00639013671875,1.8962076902389526,-2.851494312286377,8.7268648147583
1772458509505400600,5.026400634765625,1.8938134908676147,-2.499546527862549,8.9064302444458
1772458509515376000,5.036376220703125,1.9393033981323242,-2.296039342880249,8.937555313110352
1772458509525382400,5.04638232421875,2.032677173614502,-2.1380221843719482,9.057265281677246
1772458509535416800,5.056416748046875,2.0877439975738525,-2.051830768585205,9.100360870361328
1772458509545780500,5.066780517578125,2.075772762298584,-2.1164743900299072,9.155426979064941
1772458509555421400,5.07642138671875,2.03507137298584,-2.1763293743133545,9.0859956741333
1772458509566070000,5.087070068359375,1.965639591217041,-2.276885747909546,9.011775016784668
1772458509575492600,5.09649267578125,1.9345149993896484,-2.33913516998291,8.96149730682373
1772458509588039000,5.109038818359375,1.8698714971542358,-2.3774423599243164,8.901641845703125
1772458509595603200,5.116603271484375,1.824381709098816,-2.5306711196899414,8.860940933227539
1772458509615654000,5.13665380859375,1.9800047874450684,-2.4684219360351562,8.827422142028809
1772458509625683000,5.146682861328125,1.98958158493042,-2.279279947280884,8.89685344696045
1772458509635639800,5.156639892578125,2.1523873805999756,-2.164358377456665,8.918401718139648
1772458509645959200,5.166959228515625,2.166752576828003,-2.1140801906585693,8.887276649475098
1772458509655637000,5.176636962890625,2.250549554824829,-2.1356279850006104,8.882488250732422
1772458509665687600,5.1866875,2.293645143508911,-2.054224967956543,8.96149730682373
1772458509675649000,5.19664892578125,2.427720546722412,-2.030282974243164,9.069235801696777
1772458509685659600,5.20665966796875,2.4181437492370605,-2.188300371170044,9.188945770263672
1772458509695646200,5.216646240234375,2.2816741466522217,-2.27209734916687,9.318233489990234
1772458509705680000,5.226679931640625,2.279279947280884,-2.2816741466522217,9.370905876159668
1772458509715645400,5.2366455078125,2.252943754196167,-2.3056161403656006,9.440337181091309
1772458509726268400,5.247268310546875,2.3511061668395996,-2.276885747909546,9.526528358459473
1772458509735671800,5.256671875,2.367865562438965,-2.205059766769409,9.636661529541016
1772458509747597300,5.268597412109375,2.2218191623687744,-2.183511972427368,9.66539192199707
1772458509755700500,5.276700439453125,2.190694570541382,-2.1499931812286377,9.684545516967773
1772458509765711600,5.286711669921875,2.161964178085327,-2.2242133617401123,9.696516990661621
1772458509775704000,5.2967041015625,2.097320795059204,-2.2457611560821533,9.674968719482422
1772458509785736000,5.30673583984375,2.078166961669922,-2.346317768096924,9.68933391571045
1772458509795695600,5.316695556640625,2.1332337856292725,-2.3798365592956543,9.636661529541016
1772458509805736000,5.32673583984375,2.0661959648132324,-2.3774423599243164,9.615114212036133
1772458509815714000,5.336714111328125,1.9536685943603516,-2.403778553009033,9.521739959716797
1772458509835721700,5.3567216796875,1.9752163887023926,-2.2457611560821533,9.39245319366455
1772458509855747000,5.3767470703125,1.8626888990402222,-2.279279947280884,9.198522567749023
1772458509865781200,5.38678125,1.8698714971542358,-2.298433542251587,9.119514465332031
1772458509875751700,5.396751708984375,1.8698714971542358,-2.2625205516815186,9.083600997924805
1772458509886375200,5.407375244140625,1.8387469053268433,-2.2146365642547607,9.074024200439453
1772458509895756000,5.416756103515625,1.8531121015548706,-2.2002713680267334,9.023746490478516
1772458509908276000,5.42927587890625,1.7860745191574097,-2.2002713680267334,9.028534889221191
1772458509915779800,5.43677978515625,1.7357962131500244,-2.1811177730560303,8.959102630615234
1772458509925785000,5.44678515625,1.7405846118927002,-2.1739351749420166,8.999804496765137
1772458509935767800,5.456767822265625,1.6639702320098877,-2.1739351749420166,8.904036521911621
1772458509946100700,5.467100830078125,1.6927006244659424,-2.233790159225464,8.995016098022461
1772458509955756500,5.476756591796875,1.6543933153152466,-2.233790159225464,9.030928611755371
1772458509965762000,5.486761962890625,1.6280571222305298,-2.3702597618103027,8.98543930053711
1772458509985769500,5.50676953125,1.6496049165725708,-2.3702597618103027,9.131484985351562
1772458510005758000,5.526758056640625,1.6304513216018677,-2.470816135406494,9.148244857788086
1772458510015752400,5.53675244140625,1.580173134803772,-2.5115175247192383,9.160215377807617
1772458510025780200,5.5467802734375,1.601720929145813,-2.4803929328918457,9.320627212524414
1772458510035744300,5.556744140625,1.5682021379470825,-2.5929205417633057,9.186552047729492
1772458510046694400,5.5676943359375,1.6519991159439087,-2.6001031398773193,9.289502143859863
1772458510055764500,5.576764404296875,1.6136919260025024,-2.5306711196899414,9.220070838928223
1772458510067373800,5.588373779296875,1.6711528301239014,-2.6001031398773193,9.279925346374512
1772458510075756500,5.596756591796875,1.766920804977417,-2.518700122833252,9.32541561126709
1772458510085762800,5.6067626953125,1.7190368175506592,-2.499546527862549,9.378087997436523
1772458510095754200,5.616754150390625,1.766920804977417,-2.4827871322631836,9.277531623840332
1772458510105796400,5.62679638671875,1.802833914756775,-2.557007312774658,9.169792175292969
1772458510125772500,5.6467724609375,1.8842366933822632,-2.47560453414917,9.205705642700195
1772458510135785200,5.65678515625,2.027888774871826,-2.473210334777832,9.17697525024414
1772458510165814800,5.686814697265625,1.9967641830444336,-2.4420857429504395,9.2033109664917
1772458510175810600,5.696810546875,2.0207061767578125,-2.4205379486083984,9.11233139038086
1772458510185848300,5.706848388671875,2.013523578643799,-2.4372973442077637,9.071630477905273
1772458510195830000,5.716830078125,2.0398597717285156,-2.542642116546631,9.136273384094238
1772458510206450200,5.7274501953125,2.049436569213867,-2.4851813316345215,9.064447402954102
1772458510215833000,5.7368330078125,2.0159177780151367,-2.5785553455352783,9.071630477905273
1772458510228354300,5.749354248046875,2.027888774871826,-2.5091233253479004,8.983044624328613
1772458510235865000,5.756864990234375,2.0183119773864746,-2.5450363159179688,9.05487060546875
1772458510246201300,5.767201416015625,1.9967641830444336,-2.5282769203186035,9.081207275390625
1772458510255884300,5.77688427734375,1.9369091987609863,-2.5234885215759277,9.038111686706543
1772458510265927200,5.78692724609375,2.013523578643799,-2.561795711517334,9.093177795410156
1772458510275895600,5.7968955078125,1.965639591217041,-2.5115175247192383,9.181763648986816
1772458510286183400,5.807183349609375,1.965639591217041,-2.470816135406494,9.248801231384277
1772458510295918600,5.816918701171875,2.0398597717285156,-2.516305923461914,9.227252960205078
1772458510305953500,5.82695361328125,2.0159177780151367,-2.513911724090576,9.265560150146484
1772458510315912700,5.83691259765625,2.030282974243164,-2.4899697303771973,9.172186851501465
1772458510325920300,5.846920166015625,2.030282974243164,-2.5115175247192383,9.21288776397705
1772458510335923700,5.856923828125,1.98958158493042,-2.561795711517334,9.251194953918457
1772458510346278000,5.86727783203125,2.032677173614502,-2.5689783096313477,9.23682975769043
1772458510355926800,5.8769267578125,1.9967641830444336,-2.604891538619995,9.27034854888916
1772458510366546000,5.8875458984375,2.0015525817871094,-2.5905263423919678,9.241618156433105
1772458510387630000,5.908630126953125,2.027888774871826,-2.6862943172454834,9.299078941345215
1772458510395972900,5.916972900390625,1.9943699836730957,-2.6360161304473877,9.279925346374512
1772458510405994800,5.926994873046875,1.987187385559082,-2.612074136734009,9.318233489990234
1772458510415996700,5.93699658203125,2.0398597717285156,-2.7054479122161865,9.306262016296387
1772458510426048000,5.947048095703125,2.0398597717285156,-2.6431987285614014,9.313444137573242
1772458510436026400,5.9570263671875,2.027888774871826,-2.7078421115875244,9.313444137573242
1772458510446351400,5.967351318359375,2.011129379272461,-2.695871114730835,9.294290542602539
1772458510456034000,5.977033935546875,2.011129379272461,-2.6599581241607666,9.258378028869629
1772458510466081000,5.9870810546875,2.030282974243164,-2.612074136734009,9.313444137573242
1772458510476053500,5.997053466796875,1.9776105880737305,-2.540247917175293,9.287108421325684
1772458510486101800,6.007101806640625,2.027888774871826,-2.612074136734009,9.260771751403809
1772458510496105700,6.017105712890625,1.944091796875,-2.537853717803955,9.198522567749023
1772458510506162000,6.027161865234375,2.0254945755004883,-2.604891538619995,9.265560150146484
1772458510516137000,6.037136962890625,1.9919757843017578,-2.6024973392486572,9.27034854888916
1772458510526771700,6.047771728515625,2.006340980529785,-2.6024973392486572,9.296685218811035
1772458510536178700,6.0571787109375,2.011129379272461,-2.628833532333374,9.208099365234375
1772458510549047000,6.070047119140625,1.8746598958969116,-2.609679937362671,9.2033109664917
1772458510566256000,6.087256103515625,1.8722656965255737,-2.52109432220459,9.23682975769043
1772458510576265500,6.097265380859375,1.944091796875,-2.5330653190612793,9.165003776550293
1772458510586303700,6.1073037109375,1.8986018896102905,-2.518700122833252,9.246406555175781
1772458510596266500,6.1172666015625,1.9608511924743652,-2.494758129119873,9.284713745117188
1772458510606281700,6.12728173828125,1.946485996246338,-2.518700122833252,9.244012832641602
1772458510617300500,6.138300537109375,1.944091796875,-2.5115175247192383,9.208099365234375
1772458510627339000,6.148339111328125,1.8507179021835327,-2.497152328491211,9.198522567749023
1772458510637309400,6.158309326171875,1.922544002532959,-2.518700122833252,9.181763648986816
1772458510647636000,6.168635986328125,1.9033904075622559,-2.3965959548950195,9.138668060302734
1772458510657320000,6.17831982421875,1.9991583824157715,-2.3582887649536133,9.193734169006348
1772458510667347700,6.18834765625,1.9584569931030273,-2.2242133617401123,9.215282440185547
1772458510677323000,6.198322998046875,2.008735179901123,-2.2816741466522217,9.205705642700195
1772458510687941400,6.20894140625,1.9488801956176758,-2.2409727573394775,9.11233139038086
1772458510697321000,6.218321044921875,1.9345149993896484,-2.2697031497955322,9.193734169006348
1772458510708934100,6.22993408203125,1.9105730056762695,-2.3032219409942627,9.220070838928223
1772458510717322800,6.23832275390625,1.86508309841156,-2.3319525718688965,9.153033256530762
1772458510727332400,6.248332275390625,1.9249382019042969,-2.427720546722412,9.181763648986816
1772458510737314000,6.25831396484375,1.9129672050476074,-2.3582887649536133,9.14585018157959
1772458510747649000,6.26864892578125,1.9728221893310547,-2.3535003662109375,9.093177795410156
1772458510757301200,6.27830126953125,1.9273324012756348,-2.3702597618103027,9.10993766784668
1772458510767322400,6.288322265625,1.900996208190918,-2.31758713722229,9.121908187866211
1772458510777317400,6.2983173828125,1.944091796875,-2.2912509441375732,9.124302864074707
1772458510797322800,6.31832275390625,1.8818424940109253,-2.3056161403656006,9.095572471618652
1772458510807350300,6.328350341796875,1.9033904075622559,-2.363077163696289,9.064447402954102
1772458510817378300,6.33837841796875,1.8818424940109253,-2.38462495803833,9.141061782836914
1772458510827413000,6.3484130859375,1.9536685943603516,-2.3965959548950195,9.153033256530762
1772458510837382400,6.35838232421875,1.886630892753601,-2.432508945465088,9.121908187866211
1772458510848317700,6.369317626953125,1.9608511924743652,-2.4588451385498047,9.129091262817383
1772458510857398500,6.3783984375,1.9991583824157715,-2.451662540435791,9.08838939666748
1772458510869923600,6.390923583984375,2.013523578643799,-2.4875755310058594,9.105149269104004
1772458510877426000,6.398426025390625,2.03507137298584,-2.4133553504943848,9.148244857788086
1772458510887435800,6.408435791015625,2.0159177780151367,-2.4612393379211426,9.148244857788086
1772458510897423400,6.41842333984375,2.0853497982025146,-2.434903144836426,9.124302864074707
1772458510907458800,6.428458740234375,1.8818424940109253,-2.449268341064453,9.066842079162598
1772458510927440400,6.4484404296875,1.9847931861877441,-2.5306711196899414,9.160215377807617
1772458510937463000,6.458463134765625,2.006340980529785,-2.557007312774658,9.157821655273438
1772458510947795200,6.468795166015625,2.0039467811584473,-2.6384103298187256,9.244012832641602
1772458510957452000,6.4784521484375,1.9823989868164062,-2.561795711517334,9.287108421325684
1772458510967483600,6.488483642578125,1.9943699836730957,-2.6671407222747803,9.272743225097656
1772458510977483000,6.49848291015625,2.0015525817871094,-2.650381326675415,9.32302188873291
1772458510987502000,6.508502197265625,2.0638017654418945,-2.647987127304077,9.361329078674316
1772458510997464800,6.51846484375,2.0422539710998535,-2.7748796939849854,9.258378028869629
1772458511008085500,6.52908544921875,2.0039467811584473,-2.7772738933563232,9.258378028869629
1772458511017520000,6.53852001953125,2.073378562927246,-2.7078421115875244,9.26795482635498
1772458511029151700,6.55015185546875,2.0661959648132324,-2.650381326675415,9.282320022583008
1772458511047818000,6.56881787109375,2.008735179901123,-2.760514497756958,9.299078941345215
1772458511057824300,6.57882421875,1.9919757843017578,-2.7557260990142822,9.239224433898926
1772458511067537000,6.588536865234375,2.0805611610412598,-2.7509377002716064,9.260771751403809
1772458511077492000,6.598491943359375,2.0805611610412598,-2.7317841053009033,9.275136947631836
1772458511087495400,6.608495361328125,2.0374655723571777,-2.7461493015289307,9.315838813781738
1772458511097487000,6.618487060546875,2.123656988143921,-2.6839001178741455,9.258378028869629
1772458511107531000,6.628531005859375,2.0925323963165283,-2.650381326675415,9.315838813781738
1772458511117486300,6.638486328125,2.075772762298584,-2.63362193107605,9.244012832641602
1772458511127489000,6.648489013671875,2.0925323963165283,-2.7054479122161865,9.263166427612305
1772458511137482200,6.658482177734375,2.0829553604125977,-2.6839001178741455,9.258378028869629
1772458511147812000,6.66881201171875,2.1116859912872314,-2.604891538619995,9.17697525024414
1772458511157462500,6.678462646484375,2.027888774871826,-2.5905263423919678,9.220070838928223
1772458511177472000,6.698471923828125,2.169146776199341,-2.6216509342193604,9.17936897277832
1772458511189983200,6.710983154296875,2.0685901641845703,-2.5450363159179688,9.138668060302734
1772458511207506700,6.728506591796875,2.1068975925445557,-2.604891538619995,9.124302864074707
1772458511217502700,6.738502685546875,2.0925323963165283,-2.5785553455352783,9.23682975769043
1772458511227529000,6.748529052734375,2.0446481704711914,-2.6791117191314697,9.184157371520996
1772458511237489700,6.75848974609375,2.0374655723571777,-2.631227731704712,9.232041358947754
1772458511247805200,6.76880517578125,2.0638017654418945,-2.63362193107605,9.222464561462402
1772458511257534700,6.77853466796875,2.075772762298584,-2.6216509342193604,9.251194953918457
1772458511267558400,6.788558349609375,2.070984363555908,-2.5905263423919678,9.21288776397705
1772458511277514200,6.79851416015625,2.051830768585205,-2.559401512145996,9.272743225097656
1772458511287520000,6.80852001953125,2.032677173614502,-2.564189910888672,9.263166427612305
1772458511297519400,6.818519287109375,2.0254945755004883,-2.5522189140319824,9.23682975769043
1772458511307550000,6.828550048828125,2.0422539710998535,-2.518700122833252,9.2033109664917
1772458511317516000,6.83851611328125,2.051830768585205,-2.5282769203186035,9.148244857788086
1772458511328139500,6.849139404296875,2.0925323963165283,-2.5091233253479004,9.193734169006348
1772458511349510100,6.87051025390625,2.013523578643799,-2.513911724090576,9.17936897277832
1772458511367625700,6.888625732421875,2.0877439975738525,-2.367865562438965,9.172186851501465
1772458511377629400,6.89862939453125,2.006340980529785,-2.3989901542663574,9.150638580322266
1772458511387659300,6.9086591796875,1.9177556037902832,-2.518700122833252,9.210494041442871
1772458511397629400,6.91862939453125,1.9967641830444336,-2.3942017555236816,9.131484985351562
1772458511407641900,6.928641845703125,2.0015525817871094,-2.3774423599243164,9.279925346374512
1772458511417641000,6.938640869140625,1.9153614044189453,-2.451662540435791,9.169792175292969
1772458511427671600,6.948671630859375,1.8315643072128296,-2.47560453414917,9.155426979064941
1772458511437652500,6.958652587890625,1.8602946996688843,-2.451662540435791,9.047688484191895
1772458511447975700,6.9689755859375,1.8555063009262085,-2.4684219360351562,9.186552047729492
1772458511457659600,6.97865966796875,1.8411411046981812,-2.492363929748535,9.141061782836914
1772458511467687700,6.988687744140625,1.8507179021835327,-2.4684219360351562,9.157821655273438
1772458511477646600,6.998646484375,1.8770540952682495,-2.4612393379211426,9.107542991638184
1772458511488260400,7.00926025390625,1.8938134908676147,-2.406172752380371,9.155426979064941
1772458511497685200,7.018685302734375,1.8722656965255737,-2.494758129119873,9.184157371520996
1772458511510190000,7.031190185546875,1.8483237028121948,-2.477998733520508,9.148244857788086
1772458511517691600,7.038691650390625,1.900996208190918,-2.4157495498657227,9.150638580322266
1772458511527698700,7.04869873046875,1.9488801956176758,-2.4588451385498047,9.14345645904541
1772458511537694700,7.05869482421875,1.8698714971542358,-2.4684219360351562,9.097966194152832
1772458511548067300,7.0690673828125,1.9919757843017578,-2.387019157409668,9.102754592895508
1772458511567740400,7.088740478515625,1.9249382019042969,-2.427720546722412,9.227252960205078
1772458511577736700,7.09873681640625,1.9560627937316895,-2.4444799423217773,9.210494041442871
1772458511587773700,7.108773681640625,2.0015525817871094,-2.3798365592956543,9.220070838928223
1772458511607750100,7.128750244140625,2.006340980529785,-2.4157495498657227,9.258378028869629
1772458511617768200,7.138768310546875,2.0614075660705566,-2.47560453414917,9.253589630126953
1772458511627801600,7.148801513671875,2.097320795059204,-2.4205379486083984,9.215282440185547
1772458511637781800,7.15878173828125,2.0374655723571777,-2.434903144836426,9.255983352661133
1772458511648710400,7.16971044921875,2.121262788772583,-2.4899697303771973,9.282320022583008
1772458511657786000,7.1787861328125,2.073378562927246,-2.4157495498657227,9.172186851501465
1772458511669452500,7.19045263671875,2.0925323963165283,-2.5234885215759277,9.188945770263672
1772458511677786000,7.1987861328125,2.123656988143921,-2.6001031398773193,9.172186851501465
1772458511687805700,7.2088056640625,2.0159177780151367,-2.5905263423919678,9.148244857788086
1772458511697794000,7.2187939453125,2.1308395862579346,-2.6623523235321045,9.184157371520996
1772458511707816400,7.22881640625,2.027888774871826,-2.691082715988159,9.217676162719727
1772458511717773600,7.238773681640625,2.0254945755004883,-2.738966703414917,9.275136947631836
1772458511727779800,7.24877978515625,2.032677173614502,-2.7509377002716064,9.282320022583008
1772458511737801500,7.258801513671875,1.9967641830444336,-2.8371291160583496,9.239224433898926
1772458511748132900,7.2691328125,1.9560627937316895,-2.75812029838562,9.148244857788086
1772458511757785000,7.27878515625,1.9800047874450684,-2.717418909072876,9.131484985351562
1772458511777787000,7.298786865234375,2.0877439975738525,-2.631227731704712,9.117119789123535
1772458511787832600,7.30883251953125,2.10210919380188,-2.6455929279327393,9.083600997924805
1772458511797788200,7.3187880859375,2.0829553604125977,-2.564189910888672,9.05487060546875
1772458511808398600,7.329398681640625,2.0422539710998535,-2.5498247146606445,8.959102630615234
1772458511817782800,7.33878271484375,1.9752163887023926,-2.6001031398773193,8.851364135742188
1772458511830288600,7.35128857421875,1.8986018896102905,-2.5905263423919678,8.920795440673828
1772458511848121300,7.369121337890625,1.9033904075622559,-2.6192567348480225,9.191340446472168
1772458511857806300,7.378806396484375,1.922544002532959,-2.4851813316345215,9.301473617553711
1772458511887847000,7.408846923828125,2.011129379272461,-2.5450363159179688,9.301473617553711
1772458511897833500,7.41883349609375,1.965639591217041,-2.5953147411346436,9.248801231384277
1772458511907860200,7.428860107421875,1.9488801956176758,-2.6408045291900635,9.23443603515625
1772458511917822500,7.438822509765625,1.9560627937316895,-2.652775526046753,9.210494041442871
1772458511927855400,7.44885546875,1.9752163887023926,-2.6862943172454834,9.17697525024414
1772458511937842400,7.458842529296875,1.9345149993896484,-2.58813214302063,9.20091724395752
1772458511948191700,7.469191650390625,1.9919757843017578,-2.564189910888672,9.157821655273438
1772458511957846800,7.4788466796875,1.9847931861877441,-2.5546131134033203,9.23443603515625
1772458511968477700,7.489477783203125,1.9847931861877441,-2.609679937362671,9.100360870361328
1772458511989479400,7.5104794921875,2.070984363555908,-2.540247917175293,9.208099365234375
1772458511997866200,7.5188662109375,2.166752576828003,-2.513911724090576,9.241618156433105
1772458512007881500,7.528881591796875,2.1164743900299072,-2.5330653190612793,9.133879661560059
1772458512027928000,7.548927978515625,2.011129379272461,-2.5713725090026855,9.148244857788086
1772458512037886500,7.558886474609375,1.9823989868164062,-2.6240451335906982,9.224859237670898
1772458512048204800,7.569204833984375,2.0853497982025146,-2.631227731704712,9.162610054016113
1772458512057881300,7.57888134765625,2.121262788772583,-2.5546131134033203,9.138668060302734
1772458512067903200,7.5889033203125,2.0685901641845703,-2.561795711517334,9.030928611755371
1772458512077869300,7.598869384765625,2.056619167327881,-2.5450363159179688,9.083600997924805
1772458512087876000,7.6088759765625,2.03507137298584,-2.6001031398773193,9.035717010498047
1772458512097853200,7.618853271484375,2.0398597717285156,-2.583343744277954,9.057265281677246
1772458512107880400,7.62888037109375,2.0446481704711914,-2.542642116546631,9.191340446472168
1772458512117843500,7.638843505859375,2.0614075660705566,-2.607285737991333,9.10993766784668
1772458512128472600,7.64947265625,2.006340980529785,-2.52109432220459,9.129091262817383
1772458512137887500,7.658887451171875,2.0254945755004883,-2.5522189140319824,9.186552047729492
1772458512150735400,7.6717353515625,2.0685901641845703,-2.513911724090576,9.097966194152832
1772458512158275600,7.679275634765625,2.0853497982025146,-2.6144683361053467,9.117119789123535
1772458512167956500,7.68895654296875,2.013523578643799,-2.5258827209472656,9.160215377807617
1772458512177933800,7.698933837890625,2.0254945755004883,-2.557007312774658,9.148244857788086
1772458512187976400,7.7089765625,1.9943699836730957,-2.5977089405059814,9.035717010498047
1772458512207944400,7.7289443359375,1.9919757843017578,-2.6360161304473877,9.160215377807617
1772458512217928000,7.738927978515625,2.0470423698425293,-2.607285737991333,9.210494041442871
1772458512227965200,7.748965087890625,2.0446481704711914,-2.559401512145996,9.17697525024414
1772458512237908000,7.758907958984375,2.0231003761291504,-2.6001031398773193,9.131484985351562
1772458512248244200,7.769244140625,1.968033790588379,-2.6647465229034424,9.136273384094238
1772458512257918200,7.778918212890625,1.9584569931030273,-2.6024973392486572,9.208099365234375
1772458512267962000,7.788962158203125,1.9728221893310547,-2.5737667083740234,9.141061782836914
1772458512288550000,7.8095498046875,1.9728221893310547,-2.564189910888672,9.093177795410156
1772458512297942800,7.81894287109375,1.9967641830444336,-2.5761611461639404,9.050082206726074
1772458512309606100,7.830606201171875,1.9728221893310547,-2.542642116546631,9.131484985351562
1772458512317956900,7.838956787109375,1.9991583824157715,-2.5737667083740234,9.193734169006348
1772458512327963000,7.848962890625,2.0446481704711914,-2.5953147411346436,9.148244857788086
1772458512337956600,7.85895654296875,2.1164743900299072,-2.5713725090026855,9.167398452758789
1772458512348290300,7.869290283203125,2.0853497982025146,-2.5761611461639404,9.157821655273438
1772458512357938400,7.8789384765625,2.1140801906585693,-2.497152328491211,9.107542991638184
1772458512367956700,7.888956787109375,2.032677173614502,-2.5665841102600098,9.121908187866211
1772458512387973000,7.90897314453125,2.0207061767578125,-2.5665841102600098,9.129091262817383
1772458512397932800,7.918932861328125,2.011129379272461,-2.518700122833252,9.222464561462402
1772458512417953800,7.938953857421875,2.073378562927246,-2.631227731704712,9.188945770263672
1772458512427979800,7.948979736328125,1.965639591217041,-2.580949544906616,9.239224433898926
1772458512437934800,7.958934814453125,1.9704279899597168,-2.5091233253479004,9.255983352661133
1772458512448859100,7.969859130859375,1.9584569931030273,-2.4899697303771973,9.239224433898926
1772458512457950200,7.9789501953125,2.0231003761291504,-2.6216509342193604,9.119514465332031
1772458512470449700,7.99144970703125,1.9345149993896484,-2.5474305152893066,9.23443603515625
1772458512477952500,7.998952392578125,1.9943699836730957,-2.5665841102600098,9.150638580322266
1772458512487952400,8.008952392578125,1.9512743949890137,-2.564189910888672,9.20091724395752
1772458512497941200,8.018941162109375,1.9752163887023926,-2.5737667083740234,9.10993766784668
1772458512507969300,8.02896923828125,1.9919757843017578,-2.5522189140319824,9.17697525024414
1772458512527948800,8.04894873046875,1.9321208000183105,-2.5522189140319824,9.133879661560059
1772458512537967000,8.058967041015626,1.9704279899597168,-2.583343744277954,9.153033256530762
1772458512548313600,8.069313720703125,1.9369091987609863,-2.5330653190612793,9.165003776550293
1772458512557980400,8.07898046875,1.9800047874450684,-2.5234885215759277,9.198522567749023
1772458512567999500,8.08899951171875,2.006340980529785,-2.5689783096313477,9.133879661560059
1772458512578013000,8.099012939453125,1.9991583824157715,-2.5234885215759277,9.181763648986816
1772458512588052000,8.109052001953126,1.9369091987609863,-2.5953147411346436,9.260771751403809
1772458512598040600,8.11904052734375,1.9249382019042969,-2.564189910888672,9.153033256530762
1772458512608679000,8.129678955078125,1.9847931861877441,-2.626439332962036,9.260771751403809
1772458512618094800,8.1390947265625,2.0183119773864746,-2.5330653190612793,9.172186851501465
1772458512629722600,8.15072265625,1.9847931861877441,-2.6024973392486572,9.167398452758789
1772458512648457700,8.169457763671875,1.944091796875,-2.4684219360351562,9.095572471618652
1772458512658165000,8.1791650390625,1.9776105880737305,-2.5330653190612793,9.14345645904541
1772458512668203500,8.18920361328125,1.8914192914962769,-2.4612393379211426,9.153033256530762
1772458512678201300,8.199201416015624,1.8363527059555054,-2.4636335372924805,9.141061782836914
1772458512688214800,8.20921484375,1.9488801956176758,-2.4875755310058594,9.186552047729492
1772458512698237700,8.21923779296875,1.8986018896102905,-2.5330653190612793,9.210494041442871
1772458512708274400,8.2292744140625,1.8363527059555054,-2.561795711517334,9.210494041442871
1772458512718249000,8.2392490234375,1.9273324012756348,-2.5929205417633057,9.229647636413574
1772458512728272100,8.249272216796875,1.920149803161621,-2.4660277366638184,9.26795482635498
1772458512738293800,8.259293701171876,1.8698714971542358,-2.434903144836426,9.210494041442871
1772458512748647000,8.26964697265625,1.8579005002975464,-2.4899697303771973,9.124302864074707
1772458512758311000,8.279310791015625,1.843535304069519,-2.5450363159179688,9.165003776550293
1772458512768330500,8.28933056640625,1.778891921043396,-2.561795711517334,9.107542991638184
1772458512778326300,8.299326171875,1.845929503440857,-2.5737667083740234,9.105149269104004
1772458512798352600,8.3193525390625,1.7884687185287476,-2.5665841102600098,9.14585018157959
1772458512808375300,8.329375244140625,1.7597382068634033,-2.6360161304473877,9.188945770263672
1772458512858430200,8.37943017578125,1.5729905366897583,-2.7246015071868896,9.232041358947754
1772458512868467500,8.389467529296875,1.53707754611969,-2.7126305103302,9.220070838928223
1772458512878440000,8.39943994140625,1.53707754611969,-2.741360902786255,9.32302188873291
1772458512898470000,8.419469970703124,1.7956513166427612,-2.5498247146606445,9.342175483703613
1772458512908517600,8.429517578125,1.9728221893310547,-2.4396915435791016,9.26795482635498
1772458512918498000,8.439498046875,2.011129379272461,-2.2457611560821533,9.277531623840332
1772458512928523300,8.449523193359376,2.140416383743286,-2.205059766769409,9.296685218811035
1772458512938772500,8.4597724609375,2.319981336593628,-2.1380221843719482,9.349357604980469
1772458512958571300,8.4795712890625,2.2912509441375732,-2.2170307636260986,9.222464561462402
1772458512998645200,8.519645263671874,2.205059766769409,-2.2457611560821533,9.205705642700195
1772458513008676400,8.52967626953125,2.2409727573394775,-2.319981336593628,9.27034854888916
1772458513028725000,8.54972509765625,2.1068975925445557,-2.3918075561523438,9.334992408752441
1772458513038704400,8.559704345703125,2.1571757793426514,-2.4660277366638184,9.332598686218262
1772458513049038300,8.570038330078125,2.1308395862579346,-2.3918075561523438,9.318233489990234
1772458513058736600,8.579736572265626,2.0901381969451904,-2.3726539611816406,9.306262016296387
1772458513068785400,8.589785400390625,2.0422539710998535,-2.4660277366638184,9.344569206237793
1772458513078765000,8.59976513671875,1.9249382019042969,-2.499546527862549,9.363722801208496
1772458513088801500,8.609801513671876,1.944091796875,-2.540247917175293,9.375694274902344
1772458513098810600,8.619810546875,1.9632453918457031,-2.5498247146606445,9.32541561126709
1772458513108858600,8.629858642578125,1.9105730056762695,-2.387019157409668,9.279925346374512
1772458513118840800,8.6398408203125,2.032677173614502,-2.427720546722412,9.23682975769043
1772458513128869600,8.64986962890625,2.0159177780151367,-2.382230758666992,9.248801231384277
1772458513138876400,8.65987646484375,1.9129672050476074,-2.4372973442077637,9.287108421325684
1772458513168935200,8.68993505859375,2.0614075660705566,-2.343923568725586,9.224859237670898
1772458513178945000,8.699945068359375,2.0183119773864746,-2.298433542251587,9.26795482635498
1772458513188990700,8.70999072265625,1.941697597503662,-2.3750481605529785,9.2033109664917
1772458513198973400,8.719973388671875,1.8507179021835327,-2.3535003662109375,9.064447402954102
1772458513209036000,8.7300361328125,1.8842366933822632,-2.3726539611816406,9.169792175292969
1772458513219020300,8.740020263671875,1.7980455160140991,-2.456450939178467,9.126696586608887
1772458513229080300,8.750080322265624,1.7693150043487549,-2.477998733520508,9.246406555175781
1772458513249399800,8.77039990234375,1.702277421951294,-2.5282769203186035,9.246406555175781
1772458513259095600,8.780095458984375,1.7405846118927002,-2.5498247146606445,9.174580574035645
1772458513279133700,8.8001337890625,1.7549498081207275,-2.5330653190612793,9.311050415039062
1772458513289327900,8.810327880859376,1.7334020137786865,-2.5115175247192383,9.275136947631836
1772458513299183000,8.82018310546875,1.7908629179000854,-2.4899697303771973,9.21288776397705
1772458513309206300,8.830206298828125,1.7717092037200928,-2.497152328491211,9.275136947631836
1772458513319196000,8.84019580078125,1.7860745191574097,-2.494758129119873,9.188945770263672
1772458513329252000,8.850252197265625,1.7932571172714233,-2.4684219360351562,9.275136947631836
1772458513339261000,8.860260986328125,1.7381904125213623,-2.6001031398773193,9.126696586608887
1772458513349601500,8.8706015625,1.8579005002975464,-2.5091233253479004,9.20091724395752
1772458513359286800,8.880286865234375,1.9177556037902832,-2.5306711196899414,9.167398452758789
1772458513369339400,8.89033935546875,1.9345149993896484,-2.542642116546631,9.191340446472168
1772458513379340300,8.90034033203125,1.9728221893310547,-2.427720546722412,9.150638580322266
1772458513389368000,8.9103681640625,2.0207061767578125,-2.425326347351074,9.20091724395752
1772458513399366700,8.92036669921875,1.9584569931030273,-2.4803929328918457,9.119514465332031
1772458513409421300,8.93042138671875,2.0231003761291504,-2.4612393379211426,9.095572471618652
1772458513419409000,8.940408935546875,1.9632453918457031,-2.4468741416931152,9.157821655273438
1772458513429440000,8.95043994140625,1.9728221893310547,-2.499546527862549,9.095572471618652
1772458513449807000,8.97080712890625,2.0183119773864746,-2.43011474609375,9.251194953918457
1772458513459487000,8.980487060546874,1.9752163887023926,-2.454056739807129,9.222464561462402
1772458513469518000,8.99051806640625,1.9704279899597168,-2.5115175247192383,9.165003776550293
1772458513489566000,9.01056591796875,1.9560627937316895,-2.516305923461914,9.20091724395752
1772458513499544000,9.0205439453125,1.9536685943603516,-2.5689783096313477,9.188945770263672
1772458513509562400,9.030562255859374,1.8818424940109253,-2.612074136734009,9.157821655273438
1772458513519558000,9.040557861328125,1.8579005002975464,-2.604891538619995,9.17697525024414
1772458513529609200,9.050609130859375,1.8986018896102905,-2.564189910888672,9.169792175292969
1772458513539594500,9.060594482421875,1.843535304069519,-2.513911724090576,9.229647636413574
1772458513549926000,9.07092578125,1.8818424940109253,-2.5953147411346436,9.275136947631836
1772458513559608800,9.08060888671875,1.8411411046981812,-2.6024973392486572,9.196128845214844
1772458513569675500,9.090675537109375,1.8986018896102905,-2.5737667083740234,9.21288776397705
1772458513599684600,9.1206845703125,1.9057846069335938,-2.564189910888672,9.227252960205078
1772458513609742600,9.13074267578125,1.8770540952682495,-2.5689783096313477,9.289502143859863
1772458513630794800,9.151794677734374,1.8363527059555054,-2.540247917175293,9.311050415039062
1772458513640790800,9.161790771484375,1.8507179021835327,-2.4851813316345215,9.150638580322266
1772458513651150300,9.172150390625,1.8579005002975464,-2.540247917175293,9.21288776397705
1772458513660832000,9.18183203125,1.7980455160140991,-2.557007312774658,9.241618156433105
1772458513670856200,9.191856201171875,1.778891921043396,-2.5498247146606445,9.253589630126953
1772458513680848600,9.2018486328125,1.8267759084701538,-2.5953147411346436,9.17936897277832
1772458513690895000,9.21189501953125,1.8986018896102905,-2.557007312774658,9.196128845214844
1772458513700883500,9.221883544921875,1.8124107122421265,-2.5953147411346436,9.220070838928223
1772458513710918700,9.231918701171875,1.8483237028121948,-2.535459518432617,9.251194953918457
1772458513720920600,9.241920654296875,1.8602946996688843,-2.5043349266052246,9.289502143859863
1772458513730967300,9.25196728515625,1.8579005002975464,-2.477998733520508,9.23682975769043
1772458513740968400,9.261968505859375,1.8579005002975464,-2.5234885215759277,9.23443603515625
1772458513751303200,9.27230322265625,1.7956513166427612,-2.542642116546631,9.255983352661133
1772458513760989700,9.28198974609375,1.8483237028121948,-2.518700122833252,9.191340446472168
1772458513771031300,9.29203125,1.8507179021835327,-2.47560453414917,9.121908187866211
1772458513781001700,9.302001708984376,1.900996208190918,-2.583343744277954,9.121908187866211
1772458513791016200,9.31201611328125,1.886630892753601,-2.518700122833252,9.184157371520996
1772458513801004800,9.3220048828125,1.886630892753601,-2.5282769203186035,9.167398452758789
1772458513811044900,9.332044921875,1.8531121015548706,-2.492363929748535,9.129091262817383
1772458513821020200,9.342020263671875,1.8555063009262085,-2.561795711517334,9.141061782836914
1772458513831045000,9.352045166015625,1.8602946996688843,-2.5306711196899414,9.20091724395752
1772458513841040100,9.3620400390625,1.8363527059555054,-2.432508945465088,9.155426979064941
1772458513851396000,9.37239599609375,1.8986018896102905,-2.5258827209472656,9.071630477905273
1772458513861086000,9.3820859375,1.9321208000183105,-2.4372973442077637,9.162610054016113
1772458513871120100,9.3921201171875,1.8531121015548706,-2.499546527862549,9.289502143859863
1772458513881120800,9.402120849609375,1.867477297782898,-2.492363929748535,9.255983352661133
1772458513891169800,9.412169677734376,2.0015525817871094,-2.4444799423217773,9.21288776397705
1772458513901152500,9.422152587890626,1.968033790588379,-2.4133553504943848,9.260771751403809
1772458513911193900,9.43219384765625,1.9249382019042969,-2.47560453414917,9.23682975769043
1772458513921193500,9.442193359375,2.011129379272461,-2.580949544906616,9.251194953918457
1772458513931240200,9.452240234375,2.03507137298584,-2.5737667083740234,9.279925346374512
1772458513941234400,9.462234375,1.9800047874450684,-2.537853717803955,9.217676162719727
1772458513951904000,9.472904052734375,2.054224967956543,-2.6862943172454834,9.248801231384277
1772458513961270500,9.4822705078125,2.0470423698425293,-2.5929205417633057,9.26795482635498
1772458513971322600,9.492322509765625,2.0685901641845703,-2.6024973392486572,9.275136947631836
1772458513981343000,9.502343017578125,2.032677173614502,-2.6192567348480225,9.232041358947754
1772458513991375400,9.512375244140625,1.9752163887023926,-2.583343744277954,9.217676162719727
1772458514001386200,9.52238623046875,1.9129672050476074,-2.6001031398773193,9.184157371520996
1772458514011433000,9.532432861328125,1.9153614044189453,-2.5713725090026855,9.157821655273438
1772458514021412600,9.54241259765625,1.8626888990402222,-2.6168625354766846,9.220070838928223
1772458514032042500,9.55304248046875,1.843535304069519,-2.494758129119873,9.215282440185547
1772458514041427500,9.562427490234375,1.8938134908676147,-2.5450363159179688,9.21288776397705
1772458514053415200,9.574415283203125,1.8626888990402222,-2.513911724090576,9.217676162719727
1772458514061485600,9.582485595703124,1.8602946996688843,-2.5785553455352783,9.131484985351562
1772458514071509800,9.592509765625,1.778891921043396,-2.5258827209472656,9.181763648986816
1772458514081501700,9.602501708984375,1.8339585065841675,-2.580949544906616,9.227252960205078
1772458514091549400,9.612549560546874,1.8363527059555054,-2.449268341064453,9.222464561462402
1772458514101528800,9.62252880859375,1.8579005002975464,-2.4660277366638184,9.232041358947754
1772458514111545300,9.63254541015625,1.8100165128707886,-2.5067291259765625,9.227252960205078
1772458514121538000,9.6425380859375,1.9081788063049316,-2.518700122833252,9.198522567749023
1772458514131592000,9.652592041015625,1.8770540952682495,-2.513911724090576,9.222464561462402
1772458514141598000,9.662597900390624,1.9345149993896484,-2.5067291259765625,9.29189682006836
1772458514151936300,9.672936279296875,1.8842366933822632,-2.4013843536376953,9.193734169006348
1772458514161627100,9.682627197265624,1.9536685943603516,-2.4444799423217773,9.332598686218262
1772458514171674400,9.69267431640625,1.8698714971542358,-2.427720546722412,9.318233489990234
1772458514181650200,9.702650146484375,1.8722656965255737,-2.4396915435791016,9.337387084960938
1772458514192276200,9.713276123046874,1.8387469053268433,-2.3582887649536133,9.275136947631836
1772458514201661000,9.722660888671875,1.8698714971542358,-2.3918075561523438,9.30386734008789
1772458514214197500,9.735197509765625,1.8626888990402222,-2.3918075561523438,9.215282440185547
1772458514221706200,9.742706298828125,1.7884687185287476,-2.2864625453948975,9.282320022583008
1772458514231723000,9.752722900390625,1.7860745191574097,-2.3535003662109375,9.210494041442871
1772458514241727500,9.7627275390625,1.800439715385437,-2.38462495803833,9.220070838928223
1772458514252093700,9.77309375,1.7717092037200928,-2.3319525718688965,9.232041358947754
1772458514261768700,9.782768798828124,1.8315643072128296,-2.250549554824829,9.21288776397705
1772458514271789000,9.7927890625,1.7956513166427612,-2.3295583724975586,9.306262016296387
1772458514281782500,9.802782470703125,1.8124107122421265,-2.279279947280884,9.296685218811035
1772458514291848200,9.81284814453125,1.778891921043396,-2.3080103397369385,9.241618156433105
1772458514301822200,9.822822265625,1.7477672100067139,-2.4157495498657227,9.318233489990234
1772458514311840500,9.832840576171876,1.7956513166427612,-2.3774423599243164,9.308655738830566
1772458514321824800,9.84282470703125,1.8076223134994507,-2.3750481605529785,9.349357604980469
1772458514331881000,9.852880859375,1.8267759084701538,-2.322375535964966,9.258378028869629
1772458514341866500,9.862866455078125,1.8722656965255737,-2.4157495498657227,9.30386734008789
1772458514352811000,9.87381103515625,1.8626888990402222,-2.3247697353363037,9.2033109664917
1772458514361895400,9.8828955078125,1.8770540952682495,-2.4396915435791016,9.258378028869629
1772458514373586400,9.89458642578125,1.8986018896102905,-2.382230758666992,9.205705642700195
1772458514381949700,9.90294970703125,1.8794482946395874,-2.3367409706115723,9.287108421325684
1772458514391981000,9.91298095703125,1.824381709098816,-2.4013843536376953,9.299078941345215
1772458514401965000,9.922965087890624,1.8938134908676147,-2.2625205516815186,9.191340446472168
1772458514412013000,9.933012939453125,1.8794482946395874,-2.3319525718688965,9.27034854888916
1772458514421989400,9.9429892578125,1.86508309841156,-2.319981336593628,9.198522567749023
1772458514432002000,9.953001953125,1.8124107122421265,-2.382230758666992,9.282320022583008
1772458514452369200,9.973369140625,1.8698714971542358,-2.31758713722229,9.258378028869629
1772458514462019000,9.98301904296875,1.7477672100067139,-2.4468741416931152,9.232041358947754
1772458514472027100,9.993027099609375,1.7884687185287476,-2.4013843536376953,9.255983352661133
1772458514482101800,10.003101806640625,1.8195933103561401,-2.473210334777832,9.299078941345215
1772458514492050400,10.013050537109375,1.900996208190918,-2.4372973442077637,9.32302188873291
1772458514502015700,10.023015625,1.8148049116134644,-2.4444799423217773,9.320627212524414
1772458514512633300,10.03363330078125,1.8052281141281128,-2.3965959548950195,9.332598686218262
1772458514522005500,10.043005615234375,1.8698714971542358,-2.408566951751709,9.38048267364502
1772458514534555100,10.05555517578125,1.8483237028121948,-2.456450939178467,9.332598686218262
1772458514542054400,10.063054443359375,1.9584569931030273,-2.4229321479797363,9.35654067993164
1772458514572066800,10.09306689453125,1.8746598958969116,-2.31758713722229,9.210494041442871
1772458514582046000,10.1030458984375,1.9584569931030273,-2.4444799423217773,9.23682975769043
1772458514592054500,10.113054443359376,1.8602946996688843,-2.387019157409668,9.188945770263672
1772458514602028800,10.12302880859375,1.8770540952682495,-2.382230758666992,9.253589630126953
1772458514612056000,10.13305615234375,1.8938134908676147,-2.341529369354248,9.301473617553711
1772458514622042000,10.1430419921875,1.9153614044189453,-2.3295583724975586,9.287108421325684
1772458514632060400,10.153060302734374,1.8962076902389526,-2.343923568725586,9.27034854888916
1772458514642036000,10.163035888671875,1.9177556037902832,-2.255337953567505,9.229647636413574
1772458514652374300,10.173374267578126,1.9297266006469727,-2.3965959548950195,9.2033109664917
1772458514672649200,10.193649169921875,1.7812861204147339,-2.406172752380371,9.198522567749023
1772458514682019800,10.203019775390626,1.8100165128707886,-2.3582887649536133,9.23682975769043
1772458514693643800,10.214643798828124,1.824381709098816,-2.3750481605529785,9.232041358947754
1772458514702037800,10.223037841796875,1.8363527059555054,-2.3535003662109375,9.308655738830566
1772458514712041500,10.23304150390625,1.8626888990402222,-2.363077163696289,9.284713745117188
1772458514722020000,10.24302001953125,1.8531121015548706,-2.3750481605529785,9.232041358947754
1772458514732054300,10.25305419921875,1.8842366933822632,-2.3319525718688965,9.205705642700195
1772458514742022000,10.26302197265625,1.867477297782898,-2.3487119674682617,9.174580574035645
1772458514752332800,10.273332763671876,1.8746598958969116,-2.3750481605529785,9.224859237670898
1772458514761995500,10.28299560546875,1.9321208000183105,-2.2457611560821533,9.21288776397705
1772458514792004000,10.313004150390626,1.8339585065841675,-2.3032219409942627,9.198522567749023
1772458514801987300,10.3229873046875,1.8100165128707886,-2.293645143508911,9.29189682006836
1772458514812018200,10.33301806640625,1.821987509727478,-2.3511061668395996,9.272743225097656
1772458514822001700,10.343001708984374,1.821987509727478,-2.341529369354248,9.244012832641602
1772458514832623000,10.353623046875,1.8291701078414917,-2.255337953567505,9.210494041442871
1772458514841999400,10.362999267578125,1.8746598958969116,-2.293645143508911,9.224859237670898
1772458514854824400,10.375824462890625,1.8555063009262085,-2.3104045391082764,9.251194953918457
1772458514862025500,10.383025390625,1.8507179021835327,-2.2840683460235596,9.217676162719727
1772458514872046000,10.393046142578125,1.8171991109848022,-2.2649147510528564,9.229647636413574
1772458514882031400,10.40303125,1.8100165128707886,-2.33913516998291,9.244012832641602
1772458514892060000,10.413059814453124,1.8411411046981812,-2.3104045391082764,9.239224433898926
1772458514902037500,10.42303759765625,1.8914192914962769,-2.3367409706115723,9.265560150146484
1772458514912057300,10.433057373046875,1.8938134908676147,-2.276885747909546,9.196128845214844
1772458514922058500,10.44305859375,1.9105730056762695,-2.3511061668395996,9.174580574035645
1772458514932092400,10.453092529296875,1.8483237028121948,-2.2864625453948975,9.198522567749023
1772458514942085000,10.463085205078125,1.800439715385437,-2.2649147510528564,9.14585018157959
1772458514952404500,10.473404541015626,1.9393033981323242,-2.22660756111145,9.265560150146484
1772458514962070300,10.4830703125,1.86508309841156,-2.2912509441375732,9.277531623840332
1772458514972106000,10.49310595703125,1.8770540952682495,-2.3319525718688965,9.248801231384277
1772458514992679000,10.513678955078126,1.8052281141281128,-2.360682964324951,9.258378028869629
1772458515002047500,10.523047607421875,1.900996208190918,-2.341529369354248,9.299078941345215
1772458515013710600,10.534710693359376,1.9273324012756348,-2.3558945655822754,9.315838813781738
1772458515022044000,10.5430439453125,1.8171991109848022,-2.2625205516815186,9.265560150146484
1772458515032065000,10.55306494140625,1.946485996246338,-2.3319525718688965,9.229647636413574
1772458515042056200,10.56305615234375,1.8794482946395874,-2.38462495803833,9.17697525024414
1772458515052431000,10.57343115234375,1.8698714971542358,-2.300827741622925,9.294290542602539
1772458515062140000,10.583139892578124,1.9321208000183105,-2.31758713722229,9.191340446472168
1772458515072182500,10.5931826171875,1.8770540952682495,-2.3295583724975586,9.255983352661133
1772458515092178000,10.613177978515624,1.920149803161621,-2.3942017555236816,9.287108421325684
1772458515102135000,10.623135009765624,1.8818424940109253,-2.3702597618103027,9.306262016296387
1772458515112157400,10.633157470703125,1.9177556037902832,-2.4444799423217773,9.27034854888916
1772458515122126000,10.6431259765625,1.8555063009262085,-2.4181437492370605,9.308655738830566
1772458515132143900,10.653143798828125,1.8483237028121948,-2.387019157409668,9.296685218811035
1772458515142102300,10.663102294921876,1.8698714971542358,-2.3774423599243164,9.301473617553711
1772458515153017900,10.674017822265625,1.8842366933822632,-2.319981336593628,9.301473617553711
1772458515162127400,10.68312744140625,1.8698714971542358,-2.3582887649536133,9.296685218811035
1772458515174679300,10.69567919921875,1.9321208000183105,-2.3774423599243164,9.227252960205078
1772458515182176300,10.70317626953125,1.9105730056762695,-2.4229321479797363,9.26795482635498
1772458515212277200,10.73327734375,1.843535304069519,-2.343923568725586,9.282320022583008
1772458515222236200,10.743236083984375,1.900996208190918,-2.300827741622925,9.277531623840332
1772458515232231200,10.753231201171875,1.9105730056762695,-2.276885747909546,9.217676162719727
1772458515242213600,10.763213623046875,1.843535304069519,-2.3247697353363037,9.232041358947754
1772458515252590800,10.7735908203125,1.900996208190918,-2.3056161403656006,9.306262016296387
1772458515262226000,10.783225830078125,1.886630892753601,-2.3295583724975586,9.315838813781738
1772458515272239600,10.793239501953124,1.9033904075622559,-2.3798365592956543,9.251194953918457
1772458515282213000,10.803213134765626,1.9153614044189453,-2.3032219409942627,9.272743225097656
1772458515292266500,10.8132666015625,1.889025092124939,-2.38462495803833,9.205705642700195
1772458515312856000,10.83385595703125,1.86508309841156,-2.3726539611816406,9.308655738830566
1772458515322224400,10.843224365234375,1.9081788063049316,-2.322375535964966,9.342175483703613
1772458515333851000,10.854850830078124,1.946485996246338,-2.3032219409942627,9.337387084960938
1772458515342220300,10.86322021484375,1.9273324012756348,-2.2864625453948975,9.263166427612305
1772458515352571000,10.87357080078125,1.8531121015548706,-2.382230758666992,9.301473617553711
1772458515362236200,10.883236083984375,1.968033790588379,-2.403778553009033,9.275136947631836
1772458515372299500,10.893299560546875,1.9057846069335938,-2.319981336593628,9.255983352661133
1772458515382298000,10.903298095703125,1.9297266006469727,-2.434903144836426,9.263166427612305
1772458515392367400,10.913367431640625,1.9632453918457031,-2.4133553504943848,9.258378028869629
1772458515402369000,10.923369140625,1.8986018896102905,-2.365471363067627,9.227252960205078
1772458515412404000,10.933404052734375,1.9321208000183105,-2.3798365592956543,9.217676162719727
1772458515422348300,10.943348388671875,1.968033790588379,-2.3271639347076416,9.210494041442871
1772458515432364500,10.953364501953125,1.9081788063049316,-2.33913516998291,9.193734169006348
1772458515442365000,10.963364990234375,1.9536685943603516,-2.387019157409668,9.244012832641602
1772458515452737000,10.973737060546876,1.9488801956176758,-2.4013843536376953,9.2033109664917
1772458515462378800,10.983378662109375,1.9081788063049316,-2.367865562438965,9.244012832641602
1772458515473005300,10.99400537109375,1.8962076902389526,-2.434903144836426,9.14345645904541
1772458515482379800,11.0033798828125,1.8698714971542358,-2.403778553009033,9.181763648986816
1772458515494900200,11.015900146484375,1.8746598958969116,-2.387019157409668,9.239224433898926
1772458515502389200,11.02338916015625,1.9776105880737305,-2.477998733520508,9.227252960205078
1772458515512411100,11.0334111328125,1.8315643072128296,-2.4468741416931152,9.308655738830566
1772458515522396200,11.043396240234374,1.9129672050476074,-2.499546527862549,9.255983352661133
1772458515532435700,11.053435791015625,1.9632453918457031,-2.406172752380371,9.296685218811035
1772458515542387000,11.063386962890625,1.965639591217041,-2.4420857429504395,9.244012832641602
1772458515552720400,11.073720458984376,1.968033790588379,-2.3750481605529785,9.244012832641602
1772458515562392000,11.08339208984375,2.006340980529785,-2.451662540435791,9.287108421325684
1772458515572432400,11.093432373046875,2.0470423698425293,-2.3582887649536133,9.205705642700195
1772458515582388700,11.103388671875,2.056619167327881,-2.43011474609375,9.318233489990234
1772458515592432600,11.1134326171875,2.011129379272461,-2.427720546722412,9.306262016296387
1772458515602435600,11.123435546875,2.056619167327881,-2.5115175247192383,9.275136947631836
1772458515612460300,11.133460205078125,2.0685901641845703,-2.5330653190612793,9.265560150146484
1772458515633067800,11.15406787109375,2.0614075660705566,-2.477998733520508,9.220070838928223
1772458515642434600,11.1634345703125,1.9488801956176758,-2.410961151123047,9.227252960205078
1772458515654422500,11.175422607421876,1.941697597503662,-2.456450939178467,9.117119789123535
1772458515662493400,11.183493408203125,1.9536685943603516,-2.4157495498657227,9.078812599182129
1772458515672533500,11.193533447265626,1.9560627937316895,-2.4588451385498047,9.114726066589355
1772458515682518000,11.20351806640625,1.8722656965255737,-2.434903144836426,8.999804496765137
1772458515692567000,11.213567138671875,1.8818424940109253,-2.406172752380371,9.078812599182129
1772458515702509800,11.223509765625,1.8363527059555054,-2.408566951751709,9.040505409240723
1772458515712523800,11.233523681640625,1.8555063009262085,-2.3989901542663574,9.069235801696777
1772458515732521700,11.253521728515626,1.8842366933822632,-2.365471363067627,9.057265281677246
1772458515742489000,11.263489013671874,1.8363527059555054,-2.3918075561523438,9.10993766784668
1772458515752821500,11.273821533203124,1.8387469053268433,-2.425326347351074,9.148244857788086
1772458515762480400,11.28348046875,1.8555063009262085,-2.387019157409668,9.133879661560059
1772458515772532700,11.29353271484375,1.7980455160140991,-2.3558945655822754,9.155426979064941
1772458515782503700,11.303503662109375,1.8363527059555054,-2.3798365592956543,9.136273384094238
1772458515793129200,11.314129150390626,1.8195933103561401,-2.427720546722412,9.148244857788086
1772458515802485500,11.323485595703126,1.8698714971542358,-2.4181437492370605,9.064447402954102
1772458515815009800,11.336009765625,1.8315643072128296,-2.425326347351074,9.160215377807617
1772458515832553700,11.3535537109375,1.9105730056762695,-2.4684219360351562,9.275136947631836
1772458515842478600,11.363478515625,1.946485996246338,-2.492363929748535,9.32302188873291
1772458515852822500,11.373822509765626,1.9297266006469727,-2.492363929748535,9.289502143859863
1772458515862455300,11.383455322265625,1.98958158493042,-2.4899697303771973,9.349357604980469
1772458515872489200,11.3934892578125,2.0159177780151367,-2.4660277366638184,9.346963882446289
1772458515882500600,11.40350048828125,2.011129379272461,-2.43011474609375,9.342175483703613
1772458515892534800,11.41353466796875,1.9847931861877441,-2.4468741416931152,9.327810287475586
1772458515902497000,11.4234970703125,1.9943699836730957,-2.3965959548950195,9.361329078674316
1772458515912548900,11.433548828125,1.8818424940109253,-2.346317768096924,9.481039047241211
1772458515922528300,11.4435283203125,1.9608511924743652,-2.5091233253479004,9.469067573547363
1772458515942567700,11.463567626953125,1.9704279899597168,-2.4899697303771973,9.373299598693848
1772458515953503000,11.4745029296875,1.9345149993896484,-2.449268341064453,9.320627212524414
1772458515962567400,11.4835673828125,1.8171991109848022,-2.5234885215759277,9.23682975769043
1772458515974191400,11.49519140625,1.7812861204147339,-2.5546131134033203,9.220070838928223
1772458515982567000,11.50356689453125,1.7477672100067139,-2.5115175247192383,9.155426979064941
1772458515992585000,11.5135849609375,1.702277421951294,-2.4684219360351562,9.05487060546875
1772458516002551300,11.52355126953125,1.7190368175506592,-2.4229321479797363,9.009381294250488
1772458516012579800,11.533579833984374,1.6089035272598267,-2.33913516998291,8.99740982055664
1772458516022577200,11.5435771484375,1.6208745241165161,-2.2577321529388428,9.02135181427002
1772458516032639200,11.55363916015625,1.7046716213226318,-2.1954829692840576,8.939949035644531
1772458516042601200,11.563601318359375,1.7908629179000854,-2.1116859912872314,9.004592895507812
1772458516052948500,11.573948486328124,1.8626888990402222,-2.0901381969451904,8.987833023071289
1772458516062592300,11.58359228515625,1.8124107122421265,-2.0614075660705566,9.035717010498047
1772458516072616200,11.5936162109375,1.7932571172714233,-2.1332337856292725,9.050082206726074
1772458516082582800,11.603582763671875,1.824381709098816,-2.205059766769409,9.093177795410156
1772458516092614400,11.613614501953125,1.8100165128707886,-2.4660277366638184,9.23443603515625
1772458516102558700,11.623558837890625,1.9057846069335938,-2.4444799423217773,9.349357604980469
1772458516113184800,11.634184814453125,1.845929503440857,-2.7030537128448486,9.418789863586426
1772458516122560300,11.643560302734375,1.946485996246338,-2.808398485183716,9.421183586120605
1772458516135085300,11.656085205078124,1.9105730056762695,-2.8395233154296875,9.454702377319336
1772458516142573000,11.663572998046876,1.8746598958969116,-2.889801502227783,9.366117477416992
1772458516152915200,11.673915283203126,2.030282974243164,-2.894589900970459,9.35893440246582
1772458516162573000,11.683572998046875,1.9608511924743652,-2.9041666984558105,9.265560150146484
1772458516172617000,11.693616943359375,1.9632453918457031,-2.7724854946136475,9.148244857788086
1772458516182561000,11.70356103515625,1.98958158493042,-2.7437551021575928,9.10993766784668
1772458516192578800,11.713578857421876,1.946485996246338,-2.719813108444214,9.131484985351562
1772458516202554400,11.723554443359374,1.8770540952682495,-2.7222073078155518,9.093177795410156
1772458516212638000,11.733637939453125,1.9369091987609863,-2.609679937362671,8.999804496765137
1772458516222621700,11.74362158203125,1.9321208000183105,-2.5258827209472656,9.009381294250488
1772458516232636400,11.753636474609374,1.9129672050476074,-2.5234885215759277,9.093177795410156
1772458516242603300,11.763603271484374,1.941697597503662,-2.4827871322631836,9.153033256530762
1772458516252945000,11.77394482421875,1.9584569931030273,-2.470816135406494,9.20091724395752
1772458516273271300,11.794271240234375,1.9057846069335938,-2.5977089405059814,9.334992408752441
1772458516282616000,11.803615966796874,1.922544002532959,-2.6240451335906982,9.41639518737793
1772458516294284000,11.815283935546875,1.9704279899597168,-2.7676970958709717,9.41400146484375
1772458516302631000,11.823630859375,1.9512743949890137,-2.875436305999756,9.342175483703613
1772458516312677000,11.833677001953125,1.8555063009262085,-2.935291290283203,9.272743225097656
1772458516322658800,11.843658935546875,1.8387469053268433,-2.937685489654541,9.313444137573242
1772458516332707300,11.853707275390626,1.8339585065841675,-2.8874073028564453,9.241618156433105
1772458516342656800,11.86365673828125,1.8076223134994507,-2.940079689025879,9.191340446472168
1772458516352994000,11.873994140625,1.7980455160140991,-2.896984100341797,9.14345645904541
1772458516363047200,11.884047119140625,1.764526605606079,-2.762908697128296,9.14345645904541
1772458516372696300,11.8936962890625,1.721431016921997,-2.75812029838562,9.14345645904541
1772458516382636000,11.903635986328124,1.7405846118927002,-2.7126305103302,9.124302864074707
1772458516392654800,11.91365478515625,1.7717092037200928,-2.63362193107605,9.17697525024414
1772458516402616300,11.9236162109375,1.8507179021835327,-2.583343744277954,9.21288776397705
1772458516412672500,11.933672607421874,1.8602946996688843,-2.6431987285614014,9.165003776550293
1772458516422616600,11.943616455078125,1.8698714971542358,-2.6791117191314697,9.186552047729492
1772458516433239300,11.9542392578125,1.8746598958969116,-2.7293899059295654,9.23443603515625
1772458516442594300,11.96359423828125,1.8986018896102905,-2.7533318996429443,9.284713745117188
1772458516455419000,11.9764189453125,1.8794482946395874,-2.8371291160583496,9.327810287475586
1772458516462601700,11.983601806640625,1.7812861204147339,-2.8586769104003906,9.263166427612305
1772458516482594000,12.003593994140624,1.8267759084701538,-2.920926094055176,9.138668060302734
1772458516492637000,12.013636962890626,1.8315643072128296,-3.00711727142334,9.222464561462402
1772458516502592800,12.0235927734375,1.8914192914962769,-2.999934673309326,9.299078941345215
1772458516512632800,12.0336328125,1.821987509727478,-3.069366693496704,9.198522567749023
1772458516522607000,12.043607177734375,1.8124107122421265,-2.9735984802246094,9.193734169006348
1772458516532650800,12.053650634765624,1.886630892753601,-2.9496564865112305,9.148244857788086
1772458516542625000,12.063625,1.8794482946395874,-2.9496564865112305,9.155426979064941
1772458516552957700,12.073957763671874,1.8387469053268433,-2.9879636764526367,9.258378028869629
1772458516562635000,12.083635009765626,1.7741034030914307,-2.9520506858825684,9.129091262817383
1772458516572675300,12.09367529296875,1.8315643072128296,-2.849100112915039,9.093177795410156
1772458516582631000,12.103630859375,1.800439715385437,-2.75812029838562,9.11233139038086
1772458516593267000,12.114266845703124,1.723825216293335,-2.691082715988159,9.083600997924805
1772458516602634800,12.123634765625,1.7573440074920654,-2.631227731704712,9.114726066589355
1772458516614270700,12.135270751953126,1.7884687185287476,-2.6168625354766846,9.136273384094238
1772458516625671200,12.146671142578125,1.7477672100067139,-2.612074136734009,9.208099365234375
1772458516635699700,12.15669970703125,1.659181833267212,-2.5785553455352783,9.138668060302734
1772458516645663700,12.166663818359375,1.6879122257232666,-2.5713725090026855,9.232041358947754
1772458516656021800,12.177021728515625,1.6424223184585571,-2.5713725090026855,9.229647636413574
1772458516665677300,12.18667724609375,1.656787633895874,-2.695871114730835,9.193734169006348
1772458516675701000,12.196700927734375,1.625662922859192,-2.691082715988159,9.107542991638184
1772458516695694800,12.21669482421875,1.5682021379470825,-2.719813108444214,9.138668060302734
1772458516705649400,12.2266494140625,1.6280571222305298,-2.7940332889556885,9.244012832641602
1772458516715665200,12.2366650390625,1.6735470294952393,-2.719813108444214,9.196128845214844
1772458516725627000,12.246626953125,1.625662922859192,-2.7102363109588623,9.29189682006836
1772458516735659500,12.256659423828125,1.7046716213226318,-2.760514497756958,9.222464561462402
1772458516745606100,12.266606201171875,1.6735470294952393,-2.6815059185028076,9.215282440185547
1772458516756570600,12.277570556640624,1.7334020137786865,-2.691082715988159,9.138668060302734
1772458516765626400,12.28662646484375,1.7501614093780518,-2.6455929279327393,9.14585018157959
1772458516778162400,12.299162353515625,1.6663644313812256,-2.669534921646118,9.090784072875977
1772458516785655800,12.30665576171875,1.7381904125213623,-2.6839001178741455,9.121908187866211
1772458516795694000,12.316694091796874,1.6831238269805908,-2.626439332962036,9.090784072875977
1772458516805655600,12.326655517578125,1.764526605606079,-2.585737943649292,9.01895809173584
1772458516815704000,12.3367041015625,1.6950948238372803,-2.5977089405059814,9.138668060302734
1772458516825664300,12.346664306640625,1.7956513166427612,-2.5474305152893066,9.150638580322266
1772458516835694000,12.356694091796875,1.7908629179000854,-2.513911724090576,9.117119789123535
1772458516845677000,12.366677001953125,1.800439715385437,-2.540247917175293,9.105149269104004
1772458516856034300,12.377034423828125,1.8076223134994507,-2.477998733520508,9.157821655273438
1772458516865684000,12.38668408203125,1.8195933103561401,-2.5067291259765625,9.172186851501465
1772458516875711500,12.39671142578125,1.7142484188079834,-2.5306711196899414,9.119514465332031
1772458516885675500,12.406675537109376,1.745373010635376,-2.52109432220459,9.136273384094238
1772458516895725600,12.4167255859375,1.6950948238372803,-2.5546131134033203,9.119514465332031
1772458516905678300,12.42667822265625,1.6831238269805908,-2.497152328491211,9.17697525024414
1772458516916305700,12.4373056640625,1.7549498081207275,-2.5474305152893066,9.205705642700195
1772458516925666800,12.446666748046875,1.7118542194366455,-2.542642116546631,9.208099365234375
1772458516937345300,12.45834521484375,1.6903064250946045,-2.655169725418091,9.11233139038086
1772458516945690000,12.466690185546875,1.7190368175506592,-2.5665841102600098,9.124302864074707
1772458516956021500,12.477021484375,1.6903064250946045,-2.4444799423217773,9.186552047729492
1772458516965670400,12.48667041015625,1.6831238269805908,-2.557007312774658,9.133879661560059
1772458516975703300,12.496703369140626,1.699883222579956,-2.516305923461914,9.100360870361328
1772458516985649700,12.506649658203125,1.6879122257232666,-2.4660277366638184,9.081207275390625
1772458516995693600,12.516693603515625,1.7070658206939697,-2.497152328491211,9.05487060546875
1772458517005643500,12.5266435546875,1.6663644313812256,-2.4205379486083984,9.172186851501465
1772458517015701200,12.536701171875,1.6136919260025024,-2.518700122833252,9.29189682006836
1772458517025650000,12.54664990234375,1.6639702320098877,-2.5019407272338867,9.282320022583008
1772458517035805400,12.556805419921876,1.5921441316604614,-2.5498247146606445,9.167398452758789
1772458517045657000,12.566656982421875,1.5729905366897583,-2.4803929328918457,9.17936897277832
1772458517055994400,12.576994384765625,1.4269442558288574,-2.5929205417633057,9.08838939666748
1772458517065656000,12.586656005859375,1.4700398445129395,-2.655169725418091,9.167398452758789
1772458517076320000,12.597320068359375,1.434126853942871,-2.6384103298187256,9.217676162719727
1772458517085661700,12.60666162109375,1.5275006294250488,-2.7461493015289307,9.196128845214844
1772458517098177300,12.61917724609375,1.7070658206939697,-2.7030537128448486,9.119514465332031
1772458517115731000,12.63673095703125,1.7812861204147339,-2.760514497756958,9.066842079162598
1772458517125681200,12.64668115234375,1.8531121015548706,-2.782062292098999,9.040505409240723
1772458517135724300,12.656724365234375,1.922544002532959,-2.7509377002716064,8.995016098022461
1772458517145699800,12.666699951171875,1.9608511924743652,-2.8562827110290527,8.99740982055664
1772458517156064000,12.67706396484375,1.9584569931030273,-2.9041666984558105,9.02135181427002
1772458517165702400,12.686702392578125,1.946485996246338,-2.8586769104003906,8.999804496765137
1772458517175727600,12.6967275390625,2.054224967956543,-2.8778305053710938,9.028534889221191
1772458517185706500,12.70670654296875,2.075772762298584,-2.853888511657715,9.102754592895508
1772458517195758000,12.716758056640625,2.145204782485962,-2.9688100814819336,9.081207275390625
1772458517205702400,12.726702392578124,2.032677173614502,-3.00711727142334,9.17697525024414
1772458517215722200,12.73672216796875,1.9321208000183105,-3.0837318897247314,9.265560150146484
1772458517225689600,12.746689697265625,1.9632453918457031,-3.268085241317749,9.406818389892578
1772458517236350700,12.757350830078124,2.0470423698425293,-3.19865345954895,9.600749015808105
1772458517245688600,12.7666884765625,1.9847931861877441,-3.203441858291626,9.816226959228516
1772458517257601500,12.7786015625,2.0853497982025146,-3.136404275894165,9.797073364257812
1772458517265697800,12.78669775390625,2.008735179901123,-3.160346269607544,9.806650161743164
1772458517275749400,12.796749267578125,1.9919757843017578,-3.2417490482330322,9.68933391571045
1772458517285708000,12.8067080078125,1.9943699836730957,-3.1244332790374756,9.713275909423828
1772458517295723300,12.81672314453125,1.8124107122421265,-2.9951462745666504,9.691728591918945
1772458517305688600,12.8266884765625,1.6759412288665771,-2.978386878967285,9.823410034179688
1772458517315749400,12.836749267578124,1.577778935432434,-2.9041666984558105,9.907206535339355
1772458517325697500,12.846697509765624,1.434126853942871,-2.8610711097717285,9.93354320526123
1772458517335725000,12.85672509765625,1.2856862545013428,-2.8610711097717285,9.938331604003906
1772458517345717800,12.8667177734375,1.2186486721038818,-2.8395233154296875,9.919178009033203
1772458517356090000,12.877090087890625,1.0295066833496094,-2.7557260990142822,9.732429504394531
1772458517365730800,12.886730712890625,1.015141487121582,-2.7246015071868896,9.500192642211914
1772458517375893200,12.896893310546876,1.0678139925003052,-2.676717519760132,9.457097053527832
1772458517385744600,12.90674462890625,1.137245774269104,-2.7126305103302,9.370905876159668
1772458517396414700,12.917414794921875,1.216254472732544,-2.7509377002716064,9.318233489990234
1772458517405757200,12.926757080078126,1.3742717504501343,-2.7509377002716064,9.313444137573242
1772458517418277000,12.939277099609376,1.479616641998291,-2.650381326675415,9.349357604980469
1772458517425800700,12.94680078125,1.5921441316604614,-2.7006595134735107,9.519346237182617
1772458517435862300,12.9568623046875,1.6352397203445435,-2.7293899059295654,9.59835433959961
1772458517445825500,12.966825439453125,1.6400281190872192,-2.760514497756958,9.672574996948242
1772458517456154000,12.977154052734376,1.6639702320098877,-2.8227639198303223,9.694122314453125
1772458517465802800,12.986802734375,1.723825216293335,-2.7126305103302,9.519346237182617
1772458517475861200,12.996861328125,1.6735470294952393,-2.8131868839263916,9.545681953430176
1772458517485811000,13.00681103515625,1.7286136150360107,-2.7293899059295654,9.555258750915527
1772458517495830300,13.016830322265625,1.7334020137786865,-2.7676970958709717,9.742006301879883
1772458517505791200,13.026791259765625,1.8411411046981812,-2.6815059185028076,9.63187313079834
1772458517525814800,13.046814697265624,1.680729627609253,-2.456450939178467,9.385271072387695
1772458517535840300,13.05684033203125,1.6927006244659424,-2.492363929748535,9.308655738830566
1772458517545819600,13.066819580078125,1.721431016921997,-2.494758129119873,9.260771751403809
1772458517556809700,13.077809814453126,1.7525556087493896,-2.4157495498657227,9.287108421325684
1772458517565855200,13.086855224609375,1.8100165128707886,-2.3726539611816406,9.2033109664917
1772458517577524200,13.098524169921875,1.8171991109848022,-2.3774423599243164,9.172186851501465
1772458517595947300,13.116947265625,1.7286136150360107,-2.252943754196167,8.98543930053711
1772458517605905400,13.126905517578125,1.6663644313812256,-2.161964178085327,8.868123054504395
1772458517615938000,13.13693798828125,1.6903064250946045,-2.1045033931732178,8.87291145324707
1772458517635997200,13.1569970703125,1.6735470294952393,-1.8052281141281128,8.949525833129883
1772458517645952000,13.166951904296875,1.7573440074920654,-1.824381709098816,8.939949035644531
1772458517656292600,13.177292724609375,1.699883222579956,-1.843535304069519,8.822632789611816
1772458517665979000,13.186978759765625,1.6711528301239014,-1.8148049116134644,8.803479194641113
1772458517676027400,13.19702734375,1.5682021379470825,-1.7932571172714233,8.880094528198242
1772458517685998600,13.20699853515625,1.5849615335464478,-1.742978811264038,8.939949035644531
1772458517696014600,13.2170146484375,1.482010841369629,-1.778891921043396,9.033323287963867
1772458517706013000,13.227012939453125,1.479616641998291,-1.8267759084701538,9.047688484191895
1772458517716669400,13.23766943359375,1.4939818382263184,-1.824381709098816,9.057265281677246
1772458517726030300,13.2470302734375,1.5466543436050415,-1.922544002532959,9.026140213012695
1772458517738546400,13.25954638671875,1.6112977266311646,-1.8387469053268433,8.968679428100586
1772458517746059000,13.26705908203125,1.601720929145813,-1.867477297782898,8.877699851989746
1772458517756413400,13.277413330078126,1.580173134803772,-1.886630892753601,8.832210540771484
1772458517766065200,13.287065185546876,1.558625340461731,-1.9129672050476074,8.7484130859375
1772458517776072000,13.297072021484375,1.577778935432434,-1.9919757843017578,8.793902397155762
1772458517786059800,13.307059814453124,1.7166426181793213,-2.1332337856292725,8.87291145324707
1772458517796092700,13.3170927734375,1.86508309841156,-2.1499931812286377,9.040505409240723
1772458517806052000,13.327052001953126,2.0039467811584473,-2.209848165512085,9.0859956741333
1772458517816084200,13.337084228515625,2.0661959648132324,-2.3798365592956543,9.136273384094238
1772458517826064100,13.347064208984374,2.2385785579681396,-2.365471363067627,9.117119789123535
1772458517836104700,13.357104736328125,2.252943754196167,-2.2409727573394775,9.016563415527344
1772458517846068200,13.367068115234375,2.2816741466522217,-2.188300371170044,8.99740982055664
1772458517856388600,13.377388671875,2.31758713722229,-2.078166961669922,9.05487060546875
1772458517866076400,13.387076416015624,2.4013843536376953,-1.8794482946395874,9.035717010498047
1772458517876727300,13.397727294921875,2.4396915435791016,-1.8962076902389526,9.042900085449219
1772458517886080000,13.407080078125,2.473210334777832,-2.0470423698425293,9.093177795410156
1772458517897686300,13.418686279296875,2.4827871322631836,-2.097320795059204,9.102754592895508
1772458517906407400,13.427407470703125,2.585737943649292,-2.346317768096924,8.966285705566406
1772458517916141300,13.437141357421876,2.583343744277954,-2.477998733520508,8.949525833129883
1772458517926091000,13.447091064453126,2.580949544906616,-2.6192567348480225,8.968679428100586
1772458517936111900,13.45711181640625,2.497152328491211,-2.6001031398773193,9.004592895507812
1772458517946089500,13.46708935546875,2.456450939178467,-2.5905263423919678,9.129091262817383
1772458517956461300,13.47746142578125,2.5043349266052246,-2.5522189140319824,9.188945770263672
1772458517966100500,13.4871005859375,2.4444799423217773,-2.454056739807129,9.23443603515625
1772458517976115200,13.497115234375,2.387019157409668,-2.425326347351074,9.311050415039062
1772458517986093800,13.50709375,2.3774423599243164,-2.408566951751709,9.406818389892578
1772458517996119300,13.517119384765625,2.322375535964966,-2.4684219360351562,9.402029991149902
1772458518006081800,13.527081787109376,2.276885747909546,-2.470816135406494,9.354146003723145
1772458518016082700,13.537082763671876,2.2864625453948975,-2.4444799423217773,9.478644371032715
1772458518026062000,13.54706201171875,2.315192937850952,-2.470816135406494,9.423578262329102
1772458518036712000,13.5577119140625,2.300827741622925,-2.537853717803955,9.44991397857666
1772458518046065000,13.56706494140625,2.2840683460235596,-2.5091233253479004,9.48343276977539
1772458518058885000,13.579885009765626,2.190694570541382,-2.583343744277954,9.342175483703613
1772458518066105000,13.58710498046875,2.1092917919158936,-2.604891538619995,9.330204010009766
1772458518076139500,13.597139404296875,2.056619167327881,-2.6168625354766846,9.296685218811035
1772458518086109000,13.60710888671875,2.0039467811584473,-2.626439332962036,9.299078941345215
1772458518096119600,13.61711962890625,2.0039467811584473,-2.6575639247894287,9.27034854888916
1772458518106135800,13.6271357421875,2.0015525817871094,-2.669534921646118,9.287108421325684
1772458518116166100,13.637166259765625,1.9800047874450684,-2.6431987285614014,9.334992408752441
1772458518126133200,13.64713330078125,1.8698714971542358,-2.671929121017456,9.334992408752441
1772458518136139800,13.657139892578124,2.006340980529785,-2.580949544906616,9.277531623840332
1772458518146143000,13.66714306640625,1.9033904075622559,-2.5929205417633057,9.248801231384277
1772458518156481500,13.6774814453125,1.9704279899597168,-2.5522189140319824,9.17936897277832
1772458518166135000,13.687135009765624,1.9536685943603516,-2.542642116546631,9.095572471618652
1772458518176142000,13.69714208984375,1.922544002532959,-2.4660277366638184,9.17697525024414
1772458518186135800,13.7071357421875,1.946485996246338,-2.449268341064453,9.167398452758789
1772458518196790300,13.717790283203126,2.008735179901123,-2.38462495803833,9.165003776550293
1772458518206135300,13.72713525390625,1.886630892753601,-2.3535003662109375,9.153033256530762
1772458518217775400,13.738775390625,2.006340980529785,-2.346317768096924,9.191340446472168
1772458518226148900,13.74714892578125,1.9369091987609863,-2.300827741622925,9.239224433898926
1772458518236166100,13.757166259765626,1.9847931861877441,-2.276885747909546,9.210494041442871
1772458518246131200,13.767131103515625,1.9967641830444336,-2.3056161403656006,9.265560150146484
1772458518256446500,13.777446533203126,1.9249382019042969,-2.2601263523101807,9.284713745117188
1772458518266124800,13.787124755859375,1.8507179021835327,-2.1787235736846924,9.318233489990234
1772458518276159700,13.79715966796875,1.9129672050476074,-2.3702597618103027,9.368511199951172
1772458518286118400,13.807118408203126,1.8579005002975464,-2.2864625453948975,9.296685218811035
1772458518296134100,13.817134033203125,1.920149803161621,-2.3104045391082764,9.265560150146484
1772458518306112800,13.82711279296875,1.8555063009262085,-2.293645143508911,9.284713745117188
1772458518316155100,13.837155029296875,1.946485996246338,-2.382230758666992,9.289502143859863
1772458518326117400,13.847117431640624,1.9105730056762695,-2.365471363067627,9.198522567749023
1772458518336125400,13.85712548828125,2.0159177780151367,-2.4636335372924805,9.301473617553711
1772458518346128400,13.86712841796875,2.032677173614502,-2.403778553009033,9.344569206237793
1772458518357090800,13.8780908203125,2.1523873805999756,-2.3343467712402344,9.320627212524414
1772458518366142500,13.887142578125,2.185906171798706,-2.3080103397369385,9.337387084960938
1772458518378655000,13.899655029296875,2.2385785579681396,-2.1954829692840576,9.26795482635498
1772458518386161000,13.907160888671875,2.2697031497955322,-2.2242133617401123,9.334992408752441
1772458518396198100,13.9171982421875,2.3942017555236816,-2.1380221843719482,9.452308654785156
1772458518406161400,13.927161376953125,2.4420857429504395,-2.0638017654418945,9.485827445983887
1772458518416166000,13.937165771484375,2.454056739807129,-1.98958158493042,9.421183586120605
1772458518426145800,13.947145751953125,2.5067291259765625,-1.889025092124939,9.368511199951172
1772458518436192800,13.95719287109375,2.542642116546631,-1.922544002532959,9.342175483703613
1772458518446184700,13.967184814453125,2.5258827209472656,-1.8171991109848022,9.126696586608887
1772458518456502000,13.977501953125,2.432508945465088,-1.802833914756775,9.062053680419922
1772458518466172000,13.987171875,2.293645143508911,-1.9369091987609863,9.050082206726074
1772458518476201000,13.997200927734376,2.3295583724975586,-1.8962076902389526,8.927978515625
1772458518496175900,14.01717578125,2.229001760482788,-1.9776105880737305,8.813055992126465
1772458518506156300,14.02715625,2.2385785579681396,-2.0590133666992188,8.848969459533691
1772458518516798200,14.037798095703126,2.190694570541382,-2.0614075660705566,8.875306129455566
1772458518526144800,14.047144775390626,2.2170307636260986,-2.1164743900299072,8.875306129455566
1772458518537763800,14.058763916015625,2.2385785579681396,-2.1739351749420166,8.9064302444458
1772458518546160600,14.06716064453125,2.293645143508911,-2.1715409755706787,8.980650901794434
1772458518556536000,14.0775361328125,2.3343467712402344,-2.126051187515259,8.990227699279785
1772458518566178300,14.08717822265625,2.387019157409668,-2.1930887699127197,9.059659004211426
1772458518576179500,14.097179443359375,2.403778553009033,-2.1954829692840576,9.17936897277832
1772458518596203500,14.11720361328125,2.4827871322631836,-2.1475989818573,9.251194953918457
1772458518606178300,14.12717822265625,2.4013843536376953,-2.2170307636260986,9.284713745117188
1772458518616168000,14.13716796875,2.3989901542663574,-2.274491548538208,9.296685218811035
1772458518626169300,14.14716943359375,2.279279947280884,-2.346317768096924,9.196128845214844
1772458518636207400,14.157207275390626,2.2457611560821533,-2.3487119674682617,9.198522567749023
1772458518646167800,14.167167724609374,2.27209734916687,-2.3127987384796143,9.100360870361328
1772458518656481300,14.177481201171876,2.2577321529388428,-2.33913516998291,9.191340446472168
1772458518666154200,14.187154296875,2.2601263523101807,-2.3487119674682617,9.241618156433105
1772458518676808700,14.19780859375,2.2649147510528564,-2.382230758666992,9.308655738830566
1772458518686172000,14.207171875,2.2409727573394775,-2.4181437492370605,9.26795482635498
1772458518698691000,14.219691162109376,2.166752576828003,-2.434903144836426,9.229647636413574
1772458518706201000,14.227201171875,2.0853497982025146,-2.3726539611816406,9.181763648986816
1772458518716249900,14.237249755859375,2.011129379272461,-2.4588451385498047,9.229647636413574
1772458518726297000,14.247297119140624,1.9536685943603516,-2.3989901542663574,9.296685218811035
1772458518736230000,14.25722998046875,1.9943699836730957,-2.4444799423217773,9.248801231384277
1772458518746214100,14.267214111328125,1.9488801956176758,-2.4468741416931152,9.265560150146484
1772458518756581600,14.27758154296875,1.9608511924743652,-2.319981336593628,9.29189682006836
1772458518766216400,14.287216552734375,2.0159177780151367,-2.274491548538208,9.279925346374512
1772458518776264700,14.2972646484375,2.0015525817871094,-2.341529369354248,9.311050415039062
1772458518786232600,14.307232666015626,2.075772762298584,-2.2361843585968018,9.208099365234375
1772458518796290600,14.31729052734375,2.051830768585205,-2.229001760482788,9.239224433898926
1772458518806240300,14.327240234375,2.0829553604125977,-2.296039342880249,9.17936897277832
1772458518816268000,14.33726806640625,2.049436569213867,-2.279279947280884,9.162610054016113
1772458518826246400,14.347246337890626,1.987187385559082,-2.4660277366638184,9.162610054016113
1772458518836921600,14.357921630859375,2.078166961669922,-2.3247697353363037,9.232041358947754
1772458518846258200,14.367258056640624,2.0661959648132324,-2.454056739807129,9.21288776397705
1772458518858222600,14.37922265625,2.1739351749420166,-2.434903144836426,9.040505409240723
1772458518866276400,14.3872763671875,2.1523873805999756,-2.4636335372924805,8.925583839416504
1772458518876326400,14.397326416015625,2.2385785579681396,-2.4444799423217773,8.822632789611816
1772458518886272000,14.40727197265625,2.126051187515259,-2.47560453414917,8.829815864562988
1772458518906254300,14.42725439453125,2.1547815799713135,-2.410961151123047,8.951920509338379
1772458518916301000,14.437301025390624,2.2625205516815186,-2.406172752380371,8.98543930053711
1772458518926252500,14.44725244140625,2.279279947280884,-2.389413356781006,9.121908187866211
1772458518936275500,14.457275390625,2.298433542251587,-2.4013843536376953,9.191340446472168
1772458518946267100,14.46726708984375,2.3582887649536133,-2.3702597618103027,9.193734169006348
1772458518956622800,14.477622802734375,2.3989901542663574,-2.3942017555236816,9.174580574035645
1772458518966250200,14.487250244140625,2.363077163696289,-2.346317768096924,9.102754592895508
1772458518976265000,14.497264892578125,2.3989901542663574,-2.389413356781006,9.167398452758789
