time,seconds_elapsed,z,y,x
1772458504931196700,0.45219677734375,8.833258628845215,2.1858019828796387,3.6559810638427734
1772458504943822800,0.46482275390625,8.82046127319336,2.185769557952881,3.6867692470550537
1772458504951893200,0.472893310546875,8.820174217224121,2.2580223083496094,3.643659830093384
1772458504961942000,0.48294189453125,8.820656776428223,2.2872118949890137,3.624235153198242
1772458504971917600,0.49291748046875,8.82060718536377,2.2945542335510254,3.6197099685668945
1772458504981957600,0.50295751953125,8.820449829101562,2.2937378883361816,3.620610237121582
1772458504991939000,0.51293896484375,8.820712089538574,2.2914793491363525,3.6214027404785156
1772458505001988900,0.52298876953125,8.822083473205566,2.286513090133667,3.6212010383605957
1772458505011953400,0.532953369140625,8.822505950927734,2.2849860191345215,3.621133327484131
1772458505021980000,0.54297998046875,8.823129653930664,2.2818219661712646,3.621609926223755
1772458505031972400,0.552972412109375,8.823433876037598,2.278336524963379,3.6230645179748535
1772458505051995100,0.5729951171875,8.824066162109375,2.2736568450927734,3.624464273452759
1772458505062019300,0.583019287109375,8.824567794799805,2.270840644836426,3.625007152557373
1772458505072002800,0.5930029296875,8.825023651123047,2.2681093215942383,3.6256048679351807
1772458505082654500,0.603654541015625,8.825091361999512,2.2660133838653564,3.626750946044922
1772458505092011300,0.61301123046875,8.824540138244629,2.2653756141662598,3.6284923553466797
1772458505104518100,0.62551806640625,8.823351860046387,2.2660107612609863,3.630983591079712
1772458505112062200,0.633062255859375,8.823018074035645,2.2661049365997314,3.6317341327667236
1772458505122119400,0.643119384765625,8.821581840515137,2.2657272815704346,3.6354591846466064
1772458505132107800,0.653107666015625,8.821503639221191,2.2651031017303467,3.636037826538086
1772458505152127000,0.673126953125,8.82209300994873,2.257511615753174,3.639328718185425
1772458505162172700,0.683172607421875,8.822399139404297,2.2541229724884033,3.6406843662261963
1772458505172157400,0.693157470703125,8.822542190551758,2.2509942054748535,3.642275094985962
1772458505182173200,0.703173095703125,8.82240104675293,2.248373031616211,3.644235134124756
1772458505192152800,0.71315283203125,8.822030067443848,2.245950222015381,3.6466264724731445
1772458505202185200,0.723185302734375,8.8211669921875,2.24381685256958,3.650024175643921
1772458505212153900,0.73315380859375,8.820250511169434,2.241248607635498,3.6538162231445312
1772458505222178600,0.743178466796875,8.81904125213623,2.238403797149658,3.658478260040283
1772458505232156700,0.75315673828125,8.817804336547852,2.234933853149414,3.6635780334472656
1772458505243111000,0.76411083984375,8.817419052124023,2.2330095767974854,3.6656763553619385
1772458505263772700,0.784772705078125,8.813353538513184,2.222014904022217,3.682098150253296
1772458505272190700,0.793190673828125,8.81148624420166,2.2188310623168945,3.688481330871582
1772458505282225000,0.803224853515625,8.809277534484863,2.214447498321533,3.6963818073272705
1772458505292204000,0.8132041015625,8.808356285095215,2.2126479148864746,3.6996538639068604
1772458505302215400,0.82321533203125,8.80490779876709,2.20571231842041,3.7119832038879395
1772458505312198000,0.833197998046875,8.802486419677734,2.200791358947754,3.7206368446350098
1772458505322230500,0.84323046875,8.799850463867188,2.1950879096984863,3.7302277088165283
1772458505332223700,0.8532236328125,8.797008514404297,2.1893341541290283,3.7403008937835693
1772458505342542800,0.86354296875,8.793170928955078,2.184349536895752,3.7522196769714355
1772458505352203800,0.873203857421875,8.791629791259766,2.182319164276123,3.757009506225586
1772458505372226600,0.8932265625,8.779029846191406,2.174069404602051,3.7911012172698975
1772458505382248400,0.90324853515625,8.774016380310059,2.1706199645996094,3.804658889770508
1772458505392232400,0.913232421875,8.771984100341797,2.1689679622650146,3.8102822303771973
1772458505402872300,0.923872314453125,8.766788482666016,2.165593385696411,3.8241360187530518
1772458505412247000,0.9332470703125,8.757762908935547,2.1624202728271484,3.846545934677124
1772458505424740900,0.945740966796875,8.749377250671387,2.161078453063965,3.866333484649658
1772458505432298200,0.95329833984375,8.743123054504395,2.161212205886841,3.880380392074585
1772458505442644000,0.96364404296875,8.74071216583252,2.1601905822753906,3.8863747119903564
1772458505452302300,0.97330224609375,8.731951713562012,2.155460834503174,3.908630132675171
1772458505482359800,1.00335986328125,8.71290111541748,2.1477084159851074,3.955134153366089
1772458505492332000,1.01333203125,8.70691967010498,2.1456615924835205,3.9693920612335205
1772458505502346000,1.023345947265625,8.700766563415527,2.143159866333008,3.984208822250366
1772458505512350700,1.033350830078125,8.698051452636719,2.1425299644470215,3.9904708862304688
1772458505522395600,1.043395751953125,8.688313484191895,2.1387557983398438,4.013641834259033
1772458505532375800,1.053375732421875,8.686735153198242,2.127448797225952,4.023056507110596
1772458505542706400,1.06370654296875,8.685220718383789,2.1136701107025146,4.033575534820557
1772458505552386800,1.07338671875,8.68033504486084,2.1072683334350586,4.047418594360352
1772458505572407300,1.0934072265625,8.6677885055542,2.098449230194092,4.078767776489258
1772458505584051500,1.105051513671875,8.660401344299316,2.0935182571411133,4.096952438354492
1772458505592419600,1.113419677734375,8.656075477600098,2.087855339050293,4.108966827392578
1772458505602461400,1.12346142578125,8.651776313781738,2.0833590030670166,4.120286464691162
1772458505612446000,1.133446044921875,8.646522521972656,2.079437732696533,4.133276462554932
1772458505622453000,1.143452880859375,8.642873764038086,2.0743637084960938,4.143445014953613
1772458505632423200,1.153423095703125,8.642659187316895,2.0715184211730957,4.145315170288086
1772458505642765000,1.16376513671875,8.639389038085938,2.063903570175171,4.155918121337891
1772458505652417000,1.1734169921875,8.638838768005371,2.0581657886505127,4.159905433654785
1772458505662436900,1.183436767578125,8.639152526855469,2.050029754638672,4.16326904296875
1772458505682449200,1.20344921875,8.641023635864258,2.040699005126953,4.163970947265625
1772458505702424800,1.2234248046875,8.644125938415527,2.0306739807128906,4.162431716918945
1772458505712400400,1.233400390625,8.645471572875977,2.028783082962036,4.160558700561523
1772458505723040800,1.244040771484375,8.648589134216309,2.022778272628784,4.1570000648498535
1772458505732414000,1.2534140625,8.651409149169922,2.0183591842651367,4.153279781341553
1772458505745219300,1.26621923828125,8.653517723083496,2.0154483318328857,4.150299549102783
1772458505752742400,1.273742431640625,8.657968521118164,2.007822275161743,4.144709587097168
1772458505762469600,1.2834697265625,8.660386085510254,2.004467725753784,4.141280651092529
1772458505792420400,1.31342041015625,8.67435073852539,1.9822453260421753,4.122708797454834
1772458505802504000,1.32350390625,8.677430152893066,1.97736656665802,4.1185688972473145
1772458505812469200,1.33346923828125,8.680078506469727,1.9730783700942993,4.115044593811035
1772458505822487000,1.343487060546875,8.68203353881836,1.9707177877426147,4.1120500564575195
1772458505832472000,1.35347216796875,8.685151100158691,1.965815782546997,4.107809543609619
1772458505842832600,1.36383251953125,8.686599731445312,1.9638938903808594,4.105666160583496
1772458505852504800,1.3735048828125,8.68873405456543,1.9612375497817993,4.102417945861816
1772458505862524400,1.3835244140625,8.690390586853027,1.960328221321106,4.099344253540039
1772458505872504800,1.3935048828125,8.692015647888184,1.9581984281539917,4.0969157218933105
1772458505892528400,1.4135283203125,8.694228172302246,1.9502021074295044,4.096035957336426
1772458505904154400,1.425154296875,8.695279121398926,1.9463021755218506,4.095658302307129
1772458505912548000,1.433548095703125,8.69586181640625,1.9441537857055664,4.095440864562988
1772458505922590200,1.443590087890625,8.696307182312012,1.942628026008606,4.095218181610107
1772458505932558800,1.453558837890625,8.69643497467041,1.9409126043319702,4.095763206481934
1772458505942878200,1.463878173828125,8.695698738098145,1.9395993947982788,4.097946643829346
1772458505952547600,1.473547607421875,8.695439338684082,1.9392530918121338,4.098660945892334
1772458505962613800,1.48361376953125,8.6953763961792,1.9404041767120361,4.098249435424805
1772458505972571400,1.4935712890625,8.693646430969238,1.9405131340026855,4.101867198944092
1772458506002605300,1.523605224609375,8.688699722290039,1.941624402999878,4.111809253692627
1772458506012571400,1.5335712890625,8.686525344848633,1.9440250396728516,4.115267753601074
1772458506022573800,1.54357373046875,8.685895919799805,1.9458391666412354,4.115738391876221
1772458506032545000,1.553544921875,8.682220458984375,1.9490514993667603,4.121971130371094
1772458506043508500,1.564508544921875,8.68015193939209,1.9502599239349365,4.125753402709961
1772458506052554500,1.573554443359375,8.6796236038208,1.9500932693481445,4.126943111419678
1772458506065053000,1.586052978515625,8.677767753601074,1.95048189163208,4.1306610107421875
1772458506072556300,1.593556396484375,8.674616813659668,1.950986385345459,4.137035369873047
1772458506082585000,1.603585205078125,8.673015594482422,1.952143907546997,4.139845371246338
1772458506112539400,1.633539306640625,8.669110298156738,1.9572333097457886,4.145618915557861
1772458506122566100,1.643566162109375,8.667448997497559,1.960121512413025,4.1477274894714355
1772458506132547000,1.653547119140625,8.664581298828125,1.9648560285568237,4.151477813720703
1772458506142863600,1.663863525390625,8.663394927978516,1.9667609930038452,4.153050899505615
1772458506152528000,1.67352783203125,8.661861419677734,1.968057632446289,4.155633449554443
1772458506162553600,1.6835537109375,8.660233497619629,1.9696238040924072,4.158283710479736
1772458506172518700,1.6935185546875,8.660038948059082,1.9695086479187012,4.1587443351745605
1772458506182521300,1.703521240234375,8.657526016235352,1.971017599105835,4.163259506225586
1772458506192514000,1.71351416015625,8.657625198364258,1.9701391458511353,4.163466930389404
1772458506224144000,1.745143798828125,8.654123306274414,1.9725316762924194,4.169611930847168
1772458506232503600,1.753503662109375,8.651387214660645,1.9748928546905518,4.174169540405273
1772458506242851600,1.7638515625,8.650228500366211,1.9750845432281494,4.176478385925293
1772458506252502800,1.773502685546875,8.649773597717285,1.976129412651062,4.1769280433654785
1772458506262503700,1.783503662109375,8.649106979370117,1.9772334098815918,4.177783966064453
1772458506272476200,1.79347607421875,8.648113250732422,1.9778108596801758,4.179568767547607
1772458506282511400,1.803511474609375,8.647323608398438,1.9772493839263916,4.181467056274414
1772458506292471600,1.813471435546875,8.6470365524292,1.975702166557312,4.182791709899902
1772458506302473000,1.823472900390625,8.646535873413086,1.9742752313613892,4.184500217437744
1772458506332456000,1.8534560546875,8.646449089050293,1.973679780960083,4.18496036529541
1772458506342772500,1.8637724609375,8.646486282348633,1.973921775817871,4.1847686767578125
1772458506352435500,1.873435546875,8.647337913513184,1.9732238054275513,4.183339595794678
1772458506363068000,1.88406787109375,8.647785186767578,1.9691797494888306,4.184319972991943
1772458506372423700,1.893423583984375,8.64835262298584,1.9648088216781616,4.185201168060303
1772458506384925200,1.90592529296875,8.649090766906738,1.9585438966751099,4.186611652374268
1772458506392446700,1.91344677734375,8.649622917175293,1.9554927349090576,4.186938762664795
1772458506402474800,1.923474853515625,8.64963436126709,1.9523093700408936,4.1884002685546875
1772458506412439800,1.933439697265625,8.64989185333252,1.9482905864715576,4.1897406578063965
1772458506432434700,1.9534345703125,8.650879859924316,1.9399775266647339,4.191555976867676
1772458506442767000,1.96376708984375,8.651391983032227,1.9346935749053955,4.192941665649414
1772458506452418600,1.97341845703125,8.651384353637695,1.9294874668121338,4.195355415344238
1772458506462422000,1.983422119140625,8.651836395263672,1.924274206161499,4.196818828582764
1772458506472401400,1.9934013671875,8.652460098266602,1.9221731424331665,4.196496486663818
1772458506482481200,2.003481201171875,8.65295124053955,1.9138894081115723,4.199267387390137
1772458506492487400,2.0134873046875,8.653841018676758,1.9091230630874634,4.19960355758667
1772458506502484200,2.023484130859375,8.65434455871582,1.9078272581100464,4.199154376983643
1772458506512459300,2.033459228515625,8.656269073486328,1.9024666547775269,4.197620391845703
1772458506532471600,2.053471435546875,8.657804489135742,1.8973859548568726,4.196752548217773
1772458506544369000,2.065368896484375,8.660174369812012,1.8914474248886108,4.194541931152344
1772458506552485400,2.0734853515625,8.660562515258789,1.8920223712921143,4.193482398986816
1772458506562502400,2.08350244140625,8.662620544433594,1.8871275186538696,4.191437244415283
1772458506572520700,2.093520751953125,8.666093826293945,1.8707771301269531,4.191586017608643
1772458506582491100,2.1034912109375,8.669062614440918,1.858168125152588,4.191055774688721
1772458506592484000,2.113484130859375,8.672789573669434,1.8432471752166748,4.189933776855469
1772458506602520600,2.1235205078125,8.67676067352295,1.8256787061691284,4.18940544128418
1772458506632509200,2.15350927734375,8.687421798706055,1.7752799987792969,4.18897008895874
1772458506642835000,2.1638349609375,8.6973295211792,1.7190698385238647,4.191854953765869
1772458506652485400,2.1734853515625,8.69976806640625,1.7054153680801392,4.192371368408203
1772458506662481400,2.1834814453125,8.71247673034668,1.6447672843933105,4.190213680267334
1772458506672485000,2.193485107421875,8.72097110748291,1.6088790893554688,4.186473846435547
1772458506683160800,2.204160888671875,8.724684715270996,1.5949848890304565,4.18405294418335
1772458506692566000,2.21356591796875,8.740976333618164,1.5319464206695557,4.173590183258057
1772458506705104400,2.2261044921875,8.745272636413574,1.5154671669006348,4.170607566833496
1772458506712673500,2.233673583984375,8.763420104980469,1.440254807472229,4.159149169921875
1772458506732732400,2.253732421875,8.786521911621094,1.3297533988952637,4.147190570831299
1772458506743085800,2.2640859375,8.797158241271973,1.2665239572525024,4.144432067871094
1772458506752842800,2.2738427734375,8.8058500289917,1.2036700248718262,4.144704341888428
1772458506762823200,2.2838232421875,8.813347816467285,1.1359814405441284,4.147871971130371
1772458506772821500,2.293821533203125,8.816078186035156,1.1069653034210205,4.149913311004639
1772458506782870800,2.303870849609375,8.82175064086914,1.0329272747039795,4.1569414138793945
1772458506792878600,2.313878662109375,8.825973510742188,0.9541584849357605,4.1667914390563965
1772458506802901000,2.32390087890625,8.830077171325684,0.818764328956604,4.186854839324951
1772458506812899600,2.333899658203125,8.830801010131836,0.7289053201675415,4.201907634735107
1772458506843819300,2.3648193359375,8.823102951049805,0.4275076389312744,4.259165287017822
1772458506852893000,2.373892822265625,8.821091651916504,0.39327383041381836,4.266622066497803
1772458506864587300,2.385587158203125,8.810365676879883,0.22589057683944702,4.300792217254639
1772458506872963300,2.39396337890625,8.802665710449219,0.15290986001491547,4.319732189178467
1772458506883031800,2.40403173828125,8.798014640808105,0.11673159897327423,4.330322742462158
1772458506892999400,2.41399951171875,8.785626411437988,0.040021009743213654,4.356783866882324
1772458506903030300,2.4240302734375,8.761957168579102,-0.07270023971796036,4.40377140045166
1772458506913031000,2.434031005859375,8.754556655883789,-0.10203476250171661,4.417885780334473
1772458506923099400,2.444099365234375,8.724587440490723,-0.21479813754558563,4.472788333892822
1772458506953093400,2.47409326171875,8.648417472839355,-0.4589829742908478,4.600499629974365
1772458506963136500,2.484136474609375,8.61486530303955,-0.5539612174034119,4.652700424194336
1772458506973098000,2.494097900390625,8.59974193572998,-0.5937549471855164,4.675713062286377
1772458506983119600,2.50411962890625,8.535439491271973,-0.762015163898468,4.768227577209473
1772458506993113300,2.51411328125,8.489663124084473,-0.8747550249099731,4.830197811126709
1772458507003751400,2.52475146484375,8.43678092956543,-0.9993097186088562,4.898212909698486
1772458507013124600,2.53412451171875,8.386139869689941,-1.1117087602615356,4.960559844970703
1772458507025623300,2.546623291015625,8.311161041259766,-1.2607038021087646,5.050307750701904
1772458507053144800,2.574144775390625,8.16154670715332,-1.5053627490997314,5.224311828613281
1772458507063144000,2.58414404296875,8.035582542419434,-1.6671985387802124,5.368449687957764
1772458507073135900,2.594135986328125,8.000142097473145,-1.7070543766021729,5.408703804016113
1772458507083154700,2.60415478515625,7.851568222045898,-1.8581228256225586,5.574105262756348
1772458507093111600,2.614111572265625,7.747131824493408,-1.9489502906799316,5.688051223754883
1772458507103155500,2.624155517578125,7.633767604827881,-2.041184425354004,5.807713508605957
1772458507113151200,2.634151123046875,7.583837509155273,-2.078197956085205,5.85977029800415
1772458507123169800,2.644169677734375,7.383954048156738,-2.2231431007385254,6.058485984802246
1772458507133131500,2.654131591796875,7.24763298034668,-2.30720853805542,6.19023323059082
1772458507163798300,2.68479833984375,6.8718976974487305,-2.470672845840454,6.545470237731934
1772458507173162500,2.69416259765625,6.593377113342285,-2.545252561569214,6.798490047454834
1772458507184759800,2.705759765625,6.364901065826416,-2.5775585174560547,7.001044273376465
1772458507193180000,2.714179931640625,6.305646896362305,-2.57763409614563,7.054431915283203
1772458507203216100,2.724216064453125,5.98356294631958,-2.6079070568084717,7.318891525268555
1772458507213179400,2.734179443359375,5.771821975708008,-2.610983371734619,7.485936164855957
1772458507223184100,2.74418408203125,5.6801066398620605,-2.607477903366089,7.556971549987793
1772458507233164300,2.754164306640625,5.462224960327148,-2.597536325454712,7.719279766082764
1772458507243492000,2.7644921875,5.104999542236328,-2.557912826538086,7.972858428955078
1772458507273142300,2.794142333984375,4.583658218383789,-2.438040256500244,8.319640159606934
1772458507283154200,2.804154296875,4.370279312133789,-2.3663675785064697,8.454073905944824
1772458507293116000,2.814115966796875,4.044858932495117,-2.234015464782715,8.649778366088867
1772458507303121200,2.82412109375,3.8510830402374268,-2.141489267349243,8.760910987854004
1772458507313101800,2.834101806640625,3.6697678565979004,-2.044123411178589,8.861420631408691
1772458507323725300,2.844725341796875,3.491713762283325,-1.9370871782302856,8.956897735595703
1772458507333117000,2.854116943359375,3.3484857082366943,-1.8425559997558594,9.031224250793457
1772458507345987300,2.8669873046875,3.176495313644409,-1.7219152450561523,9.1167573928833
1772458507373270000,2.89427001953125,2.9365806579589844,-1.5698832273483276,9.224010467529297
1772458507383277300,2.90427734375,2.7858827114105225,-1.4991992712020874,9.282329559326172
1772458507393279000,2.914279052734375,2.7019705772399902,-1.4769997596740723,9.310651779174805
1772458507403317200,2.924317138671875,2.6258435249328613,-1.4700944423675537,9.333497047424316
1772458507413290500,2.93429052734375,2.5994420051574707,-1.4732065200805664,9.340394020080566
1772458507423305200,2.94430517578125,2.4968342781066895,-1.502660870552063,9.363664627075195
1772458507433311000,2.95431103515625,2.477792978286743,-1.518789529800415,9.366119384765625
1772458507443673900,2.964673828125,2.4230735301971436,-1.5636537075042725,9.373051643371582
1772458507453345300,2.97434521484375,2.371419906616211,-1.6205284595489502,9.376602172851562
1772458507473364200,2.9943642578125,2.2758238315582275,-1.762325644493103,9.374712944030762
1772458507484023600,3.0050234375,2.231381893157959,-1.843606948852539,9.369762420654297
1772458507493404200,3.014404052734375,2.190556526184082,-1.9311025142669678,9.361767768859863
1772458507505069600,3.026069580078125,2.15187406539917,-2.027503252029419,9.35035228729248
1772458507513436200,3.034436279296875,2.1079118251800537,-2.117375612258911,9.340439796447754
1772458507523477200,3.044477294921875,2.064952850341797,-2.2072601318359375,9.32922077178955
1772458507543821600,3.064821533203125,1.9737414121627808,-2.3631277084350586,9.31076717376709
1772458507553506000,3.074506103515625,1.9023540019989014,-2.44844913482666,9.30357551574707
1772458507563545000,3.084545166015625,1.8759161233901978,-2.507467746734619,9.293220520019531
1772458507583555000,3.10455517578125,1.8189061880111694,-2.5727713108062744,9.286701202392578
1772458507593550800,3.11455078125,1.7847262620925903,-2.591608762741089,9.288093566894531
1772458507603588400,3.12458837890625,1.7489920854568481,-2.604980707168579,9.291150093078613
1772458507614606600,3.135606689453125,1.7146297693252563,-2.614121675491333,9.294987678527832
1772458507624626700,3.145626708984375,1.7073400020599365,-2.619936943054199,9.294692993164062
1772458507634640400,3.155640380859375,1.6894638538360596,-2.61305570602417,9.299895286560059
1772458507645599700,3.166599853515625,1.6932880878448486,-2.604031562805176,9.301729202270508
1772458507654663200,3.1756630859375,1.706683874130249,-2.595484495162964,9.301671981811523
1772458507667165000,3.1881650390625,1.7309949398040771,-2.5842182636260986,9.300314903259277
1772458507684755700,3.205755615234375,1.774078369140625,-2.5773608684539795,9.294097900390625
1772458507694743000,3.215742919921875,1.784387230873108,-2.5812911987304688,9.291032791137695
1772458507704764000,3.225763916015625,1.8046809434890747,-2.5796492099761963,9.287568092346191
1772458507714762500,3.235762451171875,1.8337708711624146,-2.577441692352295,9.282482147216797
1772458507724804600,3.2458046875,1.8388807773590088,-2.5784733295440674,9.281184196472168
1772458507734801700,3.2558017578125,1.871629238128662,-2.5878586769104004,9.272022247314453
1772458507745132000,3.266132080078125,1.8920798301696777,-2.598118782043457,9.264998435974121
1772458507754814700,3.275814697265625,1.906148076057434,-2.609515428543091,9.258910179138184
1772458507764843300,3.28584326171875,1.9214900732040405,-2.6210532188415527,9.252477645874023
1772458507774816300,3.295816162109375,1.935011863708496,-2.6353507041931152,9.245596885681152
1772458507805483800,3.32648388671875,1.958527684211731,-2.691542625427246,9.224432945251465
1772458507814856000,3.33585595703125,1.9544880390167236,-2.696179151535034,9.2239351272583
1772458507834889000,3.355888916015625,1.9749369621276855,-2.7530829906463623,9.202746391296387
1772458507845235500,3.3662353515625,1.9828203916549683,-2.7743561267852783,9.194660186767578
1772458507854892300,3.375892333984375,1.9895739555358887,-2.7946841716766357,9.187041282653809
1772458507864892000,3.385891845703125,1.9946441650390625,-2.815711498260498,9.179519653320312
1772458507874903800,3.39590380859375,1.9984990358352661,-2.8388376235961914,9.171552658081055
1772458507884927500,3.405927490234375,2.00095534324646,-2.8625967502593994,9.163631439208984
1772458507904886300,3.42588623046875,2.0015695095062256,-2.9120278358459473,9.147908210754395
1772458507914876700,3.435876708984375,1.9974358081817627,-2.9354777336120605,9.141313552856445
1772458507924924400,3.44592431640625,1.988531231880188,-2.957718849182129,9.13608455657959
1772458507934894600,3.45589453125,1.9820524454116821,-2.9648780822753906,9.135172843933105
1772458507945212000,3.4662119140625,1.9627643823623657,-3.001011371612549,9.127534866333008
1772458507954893000,3.47589306640625,1.9485896825790405,-3.0206968784332275,9.124076843261719
1772458507965517600,3.486517578125,1.931428074836731,-3.041674852371216,9.120757102966309
1772458507974923000,3.495923095703125,1.9212387800216675,-3.0471279621124268,9.121088027954102
1772458507987429600,3.5084296875,1.8905624151229858,-3.075972318649292,9.117815017700195
1772458508014921700,3.535921630859375,1.8401187658309937,-3.098257064819336,9.120591163635254
1772458508024944000,3.545944091796875,1.8262118101119995,-3.1016223430633545,9.122241973876953
1772458508034931000,3.555930908203125,1.8109931945800781,-3.0951831340789795,9.127461433410645
1772458508045266000,3.566265869140625,1.8049615621566772,-3.0879690647125244,9.131098747253418
1772458508054926800,3.5759267578125,1.7857798337936401,-3.088418483734131,9.13471508026123
1772458508064923400,3.58592333984375,1.7754764556884766,-3.081277847290039,9.13913631439209
1772458508074909700,3.59590966796875,1.7781728506088257,-3.068668842315674,9.142854690551758
1772458508084926700,3.6059267578125,1.7660049200057983,-3.0621113777160645,9.147409439086914
1772458508094889700,3.6158896484375,1.7706851959228516,-3.0574495792388916,9.148063659667969
1772458508125534700,3.64653466796875,1.8170453310012817,-3.011690616607666,9.154150009155273
1772458508134919400,3.65591943359375,1.8077024221420288,-2.9948923587799072,9.161506652832031
1772458508146837000,3.6678369140625,1.7922002077102661,-2.973822593688965,9.171412467956543
1772458508154940400,3.6759404296875,1.7981822490692139,-2.9553515911102295,9.176210403442383
1772458508164984000,3.685984130859375,1.8066374063491821,-2.936203718185425,9.180694580078125
1772458508174951700,3.69595166015625,1.8151947259902954,-2.919175386428833,9.18443775177002
1772458508184957400,3.70595751953125,1.8189351558685303,-2.9113569259643555,9.186178207397461
1772458508194930000,3.715929931640625,1.8319810628890991,-2.8873348236083984,9.191165924072266
1772458508204977000,3.725976806640625,1.8410464525222778,-2.871212959289551,9.194405555725098
1772458508234997800,3.755997802734375,1.8574200868606567,-2.821871757507324,9.206379890441895
1772458508245326300,3.766326416015625,1.8606057167053223,-2.8078596591949463,9.210020065307617
1772458508264984600,3.785984619140625,1.862905740737915,-2.7915778160095215,9.214502334594727
1772458508274961000,3.7959609375,1.8642477989196777,-2.7781221866607666,9.218297004699707
1772458508285596200,3.80659619140625,1.86631178855896,-2.7636330127716064,9.222233772277832
1772458508294959400,3.81595947265625,1.8705302476882935,-2.7425854206085205,9.2276611328125
1772458508307451100,3.828451171875,1.8726316690444946,-2.726710557937622,9.231940269470215
1772458508314971100,3.83597119140625,1.8718138933181763,-2.718935966491699,9.234397888183594
1772458508325000000,3.846,1.8709341287612915,-2.7073347568511963,9.237983703613281
1772458508334971100,3.85597119140625,1.8680250644683838,-2.697169303894043,9.241545677185059
1772458508345293800,3.8662939453125,1.8628817796707153,-2.6897459030151367,9.244746208190918
1772458508354973000,3.875972900390625,1.8591490983963013,-2.682727336883545,9.247536659240723
1772458508365004300,3.88600439453125,1.8570067882537842,-2.674363136291504,9.25039005279541
1772458508374962400,3.89596240234375,1.8539713621139526,-2.6741373538970947,9.251063346862793
1772458508384964600,3.905964599609375,1.8505501747131348,-2.6682679653167725,9.253443717956543
1772458508394951700,3.91595166015625,1.8472487926483154,-2.6615045070648193,9.256050109863281
1772458508405270000,3.92627001953125,1.8465479612350464,-2.646439790725708,9.260509490966797
1772458508414954200,3.935954345703125,1.8445266485214233,-2.6393349170684814,9.262938499450684
1772458508445891800,3.966891845703125,1.831709861755371,-2.632082223892212,9.267544746398926
1772458508454947000,3.975947021484375,1.8242385387420654,-2.6279594898223877,9.27018928527832
1772458508466579200,3.9875791015625,1.8185434341430664,-2.6326968669891357,9.269962310791016
1772458508474953700,3.99595361328125,1.8106396198272705,-2.6347594261169434,9.270922660827637
1772458508484973000,4.00597314453125,1.8054741621017456,-2.6414124965667725,9.270037651062012
1772458508494941000,4.01594091796875,1.8187743425369263,-2.640873670578003,9.267592430114746
1772458508504954600,4.02595458984375,1.8106565475463867,-2.644777774810791,9.268068313598633
1772458508514936800,4.035936767578125,1.8039088249206543,-2.6517317295074463,9.267396926879883
1772458508545304600,4.0663046875,1.7848814725875854,-2.683833360671997,9.261837005615234
1772458508554989000,4.075989013671875,1.7814631462097168,-2.6954805850982666,9.259112358093262
1772458508565016600,4.0860166015625,1.7785416841506958,-2.7049124240875244,9.25692367553711
1772458508574979300,4.095979248046875,1.7765040397644043,-2.7151644229888916,9.254312515258789
1772458508584981000,4.10598095703125,1.774234414100647,-2.7260844707489014,9.251537322998047
1772458508594952700,4.11595263671875,1.7714228630065918,-2.7384297847747803,9.248430252075195
1772458508605612500,4.126612548828125,1.7688807249069214,-2.74428391456604,9.24718189239502
1772458508614988500,4.135988525390625,1.7642887830734253,-2.766672134399414,9.241385459899902
1772458508627472000,4.148471923828125,1.7622873783111572,-2.7733752727508545,9.239758491516113
1772458508645334000,4.166333984375,1.7573931217193604,-2.804950714111328,9.231155395507812
1772458508665021400,4.186021484375,1.75104820728302,-2.8355846405029297,9.222997665405273
1772458508674989300,4.1959892578125,1.747850775718689,-2.8580377101898193,9.216670989990234
1772458508685006800,4.2060068359375,1.7452642917633057,-2.8705825805664062,9.213263511657715
1772458508694976000,4.21597607421875,1.7440333366394043,-2.8755176067352295,9.211956024169922
1772458508705001200,4.226001220703125,1.7421003580093384,-2.8951971530914307,9.206155776977539
1772458508715022000,4.23602197265625,1.741236925125122,-2.899651288986206,9.204917907714844
1772458508725043000,4.24604296875,1.7403671741485596,-2.91168475151062,9.20128345489502
1772458508735005400,4.25600537109375,1.739829421043396,-2.9300742149353027,9.19554615020752
1772458508754987800,4.27598779296875,1.7388352155685425,-2.9433178901672363,9.191502571105957
1772458508765623800,4.286623779296875,1.739728331565857,-2.952751636505127,9.188307762145996
1772458508786590000,4.30758984375,1.7441186904907227,-2.968916177749634,9.18226432800293
1772458508795009300,4.31600927734375,1.7490140199661255,-2.982646942138672,9.176881790161133
1772458508805043700,4.326043701171875,1.7534388303756714,-2.9897079467773438,9.173739433288574
1772458508815016200,4.33601611328125,1.7560516595840454,-2.9908607006073,9.172863960266113
1772458508825031400,4.346031494140625,1.7642501592636108,-3.00490140914917,9.166699409484863
1772458508834997500,4.35599755859375,1.769262433052063,-3.013620138168335,9.162871360778809
1772458508845348900,4.366348876953125,1.7747435569763184,-3.023650646209717,9.158504486083984
1772458508865013500,4.386013427734375,1.7861422300338745,-3.0444507598876953,9.149393081665039
1772458508874983400,4.3959833984375,1.7917717695236206,-3.0563347339630127,9.144329071044922
1772458508885017000,4.40601708984375,1.7970950603485107,-3.068760633468628,9.139122009277344
1772458508894990300,4.415990234375,1.8022972345352173,-3.0812628269195557,9.133889198303223
1772458508905149700,4.426149658203125,1.8075462579727173,-3.0933334827423096,9.128769874572754
1772458508914996700,4.435996826171875,1.8105524778366089,-3.095294713973999,9.127509117126465
1772458508947872000,4.4688720703125,1.8184657096862793,-3.1159090995788574,9.118919372558594
1772458508965064200,4.486064208984375,1.8189555406570435,-3.1075797080993652,9.121662139892578
1772458508975036200,4.4960361328125,1.819305181503296,-3.1005289554595947,9.123991966247559
1772458508985094700,4.5060947265625,1.8205852508544922,-3.0909066200256348,9.12700080871582
1772458508995041300,4.516041259765625,1.8232746124267578,-3.0773751735687256,9.131036758422852
1772458509005062100,4.526062255859375,1.8279542922973633,-3.0609898567199707,9.135607719421387
1772458509015029200,4.536029296875,1.8337966203689575,-3.0419437885284424,9.140796661376953
1772458509025085400,4.54608544921875,1.8408769369125366,-3.0205931663513184,9.146452903747559
1772458509045399600,4.566399658203125,1.8569395542144775,-2.9727141857147217,9.158884048461914
1772458509055070200,4.5760703125,1.866502285003662,-2.946925640106201,9.16526985168457
1772458509075091700,4.596091796875,1.8881384134292603,-2.8995375633239746,9.175947189331055
1772458509085729300,4.606729248046875,1.8991438150405884,-2.869102954864502,9.183239936828613
1772458509095115500,4.616115478515625,1.9054759740829468,-2.850438356399536,9.187737464904785
1772458509106750700,4.627750732421875,1.9119203090667725,-2.829167127609253,9.192975044250488
1772458509115146500,4.636146484375,1.9162877798080444,-2.8127474784851074,9.197102546691895
1772458509125169200,4.646169189453125,1.920755386352539,-2.7941670417785645,9.20183277130127
1772458509135185400,4.656185302734375,1.9230104684829712,-2.7852628231048584,9.204060554504395
1772458509145550300,4.66655029296875,1.9244089126586914,-2.756481885910034,9.21242904663086
1772458509155213600,4.676213623046875,1.9239698648452759,-2.7376582622528076,9.218132019042969
1772458509165237000,4.686237060546875,1.9223440885543823,-2.730236053466797,9.220671653747559
1772458509215263700,4.736263671875,1.8921154737472534,-2.6233444213867188,9.257882118225098
1772458509225312500,4.7463125,1.8818565607070923,-2.6043860912323,9.265321731567383
1772458509235279000,4.756279052734375,1.871471643447876,-2.586402654647827,9.27245807647705
1772458509246208500,4.76720849609375,1.8602032661437988,-2.56520414352417,9.280613899230957
1772458509255279600,4.776279541015625,1.8551594018936157,-2.570521593093872,9.2801513671875
1772458509267809000,4.78880908203125,1.836742877960205,-2.529374122619629,9.295106887817383
1772458509285361200,4.806361083984375,1.8175746202468872,-2.507510185241699,9.30479621887207
1772458509295346000,4.816345947265625,1.8090662956237793,-2.4911253452301025,9.31085205078125
1772458509305391600,4.8263916015625,1.800970435142517,-2.4729254245758057,9.31727123260498
1772458509315353600,4.836353515625,1.793912649154663,-2.4526846408843994,9.323980331420898
1772458509325372000,4.846371826171875,1.7878689765930176,-2.4323928356170654,9.330453872680664
1772458509335376400,4.85637646484375,1.7815192937850952,-2.412736415863037,9.336769104003906
1772458509345731000,4.86673095703125,1.780423879623413,-2.407484292984009,9.338335037231445
1772458509355378700,4.876378662109375,1.7664415836334229,-2.378664493560791,9.348370552062988
1772458509365385000,4.886385009765625,1.7576546669006348,-2.36551833152771,9.353362083435059
1772458509375381800,4.8963818359375,1.7490911483764648,-2.3565611839294434,9.35722541809082
1772458509406001700,4.927001708984375,1.7136393785476685,-2.3634486198425293,9.36204719543457
1772458509427052800,4.948052734375,1.6960335969924927,-2.4135892391204834,9.352458000183105
1772458509435385900,4.9563857421875,1.698938012123108,-2.4346611499786377,9.346465110778809
1772458509445706200,4.966706298828125,1.6885972023010254,-2.4951024055480957,9.332387924194336
1772458509455384600,4.976384521484375,1.6929957866668701,-2.5249364376068115,9.323565483093262
1772458509465418000,4.98641796875,1.685901403427124,-2.5826218128204346,9.309037208557129
1772458509475379700,4.996379638671875,1.6866449117660522,-2.6001594066619873,9.304019927978516
1772458509485390000,5.00639013671875,1.6892852783203125,-2.629149913787842,9.295390129089355
1772458509495370500,5.01637060546875,1.6956901550292969,-2.667022228240967,9.283429145812988
1772458509505400600,5.026400634765625,1.7013108730316162,-2.6862120628356934,9.276863098144531
1772458509515376000,5.036376220703125,1.7065681219100952,-2.7011406421661377,9.271561622619629
1772458509525382400,5.04638232421875,1.7122610807418823,-2.7118477821350098,9.267385482788086
1772458509535416800,5.056416748046875,1.7174720764160156,-2.7116587162017822,9.26647663116455
1772458509545780500,5.066780517578125,1.7207629680633545,-2.725677013397217,9.261752128601074
1772458509555421400,5.07642138671875,1.7217090129852295,-2.7307190895080566,9.260090827941895
1772458509566070000,5.087070068359375,1.7196927070617676,-2.7363429069519043,9.258806228637695
1772458509575492600,5.09649267578125,1.7203402519226074,-2.7364068031311035,9.2586669921875
1772458509588039000,5.109038818359375,1.710390329360962,-2.7408699989318848,9.25918960571289
1772458509615654000,5.13665380859375,1.7069813013076782,-2.723768949508667,9.264863967895508
1772458509625683000,5.146682861328125,1.7101956605911255,-2.7074055671691895,9.269064903259277
1772458509635639800,5.156639892578125,1.7165155410766602,-2.686525583267212,9.273971557617188
1772458509645959200,5.166959228515625,1.7238713502883911,-2.662487506866455,9.279537200927734
1772458509655637000,5.176636962890625,1.7312208414077759,-2.6390345096588135,9.284867286682129
1772458509665687600,5.1866875,1.7376947402954102,-2.6135809421539307,9.290855407714844
1772458509675649000,5.19664892578125,1.7448060512542725,-2.586737871170044,9.297033309936523
1772458509685659600,5.20665966796875,1.7565382719039917,-2.5713930130004883,9.299079895019531
1772458509695646200,5.216646240234375,1.763043761253357,-2.5454795360565186,9.304977416992188
1772458509715645400,5.2366455078125,1.7724580764770508,-2.485719680786133,9.319334030151367
1772458509726268400,5.247268310546875,1.778266429901123,-2.4744699001312256,9.321221351623535
1772458509735671800,5.256671875,1.7845412492752075,-2.4533276557922363,9.32560920715332
1772458509747597300,5.268597412109375,1.7895716428756714,-2.4336013793945312,9.329813957214355
1772458509755700500,5.276700439453125,1.7972148656845093,-2.413672685623169,9.333520889282227
1772458509765711600,5.286711669921875,1.8013646602630615,-2.4076287746429443,9.334281921386719
1772458509775704000,5.2967041015625,1.8107815980911255,-2.4009792804718018,9.334173202514648
1772458509785736000,5.30673583984375,1.8183830976486206,-2.4018726348876953,9.332464218139648
1772458509795695600,5.316695556640625,1.827669382095337,-2.406635284423828,9.329421997070312
1772458509805736000,5.32673583984375,1.8378262519836426,-2.4146177768707275,9.32536506652832
1772458509835721700,5.3567216796875,1.8757973909378052,-2.4491260051727295,9.308792114257812
1772458509855747000,5.3767470703125,1.8941859006881714,-2.4677672386169434,9.300139427185059
1772458509865781200,5.38678125,1.912605881690979,-2.4943671226501465,9.289265632629395
1772458509875751700,5.396751708984375,1.9242005348205566,-2.509519338607788,9.282790184020996
1772458509886375200,5.407375244140625,1.928688406944275,-2.514098882675171,9.280617713928223
1772458509895756000,5.416756103515625,1.9396944046020508,-2.5275156497955322,9.274678230285645
1772458509908276000,5.42927587890625,1.9580700397491455,-2.5498433113098145,9.264700889587402
1772458509925785000,5.44678515625,1.9671636819839478,-2.558018445968628,9.260518074035645
1772458509935767800,5.456767822265625,1.9790973663330078,-2.56876277923584,9.255001068115234
1772458509946100700,5.467100830078125,1.9804964065551758,-2.569495677947998,9.254496574401855
1772458509955756500,5.476756591796875,1.9848893880844116,-2.5718557834625244,9.252900123596191
1772458509965762000,5.486761962890625,1.9901267290115356,-2.573695421218872,9.251264572143555
1772458509985769500,5.50676953125,1.9899252653121948,-2.5674123764038086,9.253052711486816
1772458510005758000,5.526758056640625,1.9851477146148682,-2.5595407485961914,9.256258964538574
1772458510015752400,5.53675244140625,1.980218768119812,-2.549960136413574,9.25995922088623
1772458510035744300,5.556744140625,1.9628219604492188,-2.534528970718384,9.26789665222168
1772458510046694400,5.5676943359375,1.953009843826294,-2.5268092155456543,9.272075653076172
1772458510055764500,5.576764404296875,1.9450855255126953,-2.5194644927978516,9.275738716125488
1772458510067373800,5.588373779296875,1.934502363204956,-2.5113000869750977,9.28016471862793
1772458510075756500,5.596756591796875,1.9264544248580933,-2.504371404647827,9.283710479736328
1772458510085762800,5.6067626953125,1.9203662872314453,-2.5006706714630127,9.285970687866211
1772458510095754200,5.616754150390625,1.9100592136383057,-2.4888057708740234,9.291280746459961
1772458510105796400,5.62679638671875,1.906882882118225,-2.487382411956787,9.292314529418945
1772458510125772500,5.6467724609375,1.8932491540908813,-2.4760053157806396,9.298139572143555
1772458510165814800,5.686814697265625,1.8823049068450928,-2.476685047149658,9.300179481506348
1772458510175810600,5.696810546875,1.8824259042739868,-2.478013753890991,9.299802780151367
1772458510185848300,5.706848388671875,1.877015233039856,-2.485969305038452,9.298771858215332
1772458510195830000,5.716830078125,1.8751517534255981,-2.4928650856018066,9.29730224609375
1772458510206450200,5.7274501953125,1.8757357597351074,-2.495755672454834,9.296409606933594
1772458510215833000,5.7368330078125,1.8715897798538208,-2.5061099529266357,9.294458389282227
1772458510228354300,5.749354248046875,1.8686820268630981,-2.512129783630371,9.293418884277344
1772458510235865000,5.756864990234375,1.8702141046524048,-2.513690948486328,9.29268741607666
1772458510246201300,5.767201416015625,1.8654946088790894,-2.51904559135437,9.292187690734863
1772458510265927200,5.78692724609375,1.860825777053833,-2.522390365600586,9.292214393615723
1772458510275895600,5.7968955078125,1.8609294891357422,-2.522446632385254,9.292179107666016
1772458510286183400,5.807183349609375,1.8546202182769775,-2.5183048248291016,9.294562339782715
1772458510295918600,5.816918701171875,1.8536510467529297,-2.51542067527771,9.295536994934082
1772458510305953500,5.82695361328125,1.8536320924758911,-2.511589765548706,9.296577453613281
1772458510315912700,5.83691259765625,1.85478937625885,-2.509972095489502,9.296784400939941
1772458510325920300,5.846920166015625,1.8516037464141846,-2.5032131671905518,9.299241065979004
1772458510335923700,5.856923828125,1.853163242340088,-2.502760171890259,9.299052238464355
1772458510346278000,5.86727783203125,1.8506019115447998,-2.4967875480651855,9.301168441772461
1772458510355926800,5.8769267578125,1.8518562316894531,-2.4971208572387695,9.300829887390137
1772458510387630000,5.908630126953125,1.8453806638717651,-2.4923832416534424,9.303385734558105
1772458510395972900,5.916972900390625,1.844911813735962,-2.493508815765381,9.303177833557129
1772458510405994800,5.926994873046875,1.8454972505569458,-2.4945414066314697,9.30278491973877
1772458510415996700,5.93699658203125,1.8439669609069824,-2.497748374938965,9.302227973937988
1772458510426048000,5.947048095703125,1.845113754272461,-2.501462936401367,9.301002502441406
1772458510436026400,5.9570263671875,1.8465741872787476,-2.5068283081054688,9.29926872253418
1772458510446351400,5.967351318359375,1.8486069440841675,-2.5134084224700928,9.297087669372559
1772458510456034000,5.977033935546875,1.8514835834503174,-2.517566442489624,9.295390129089355
1772458510466081000,5.9870810546875,1.854019284248352,-2.523951768875122,9.293150901794434
1772458510486101800,6.007101806640625,1.8605133295059204,-2.543820858001709,9.286434173583984
1772458510496105700,6.017105712890625,1.8622078895568848,-2.5472705364227295,9.285147666931152
1772458510506162000,6.027161865234375,1.8659824132919312,-2.5567166805267334,9.281795501708984
1772458510516137000,6.037136962890625,1.8695389032363892,-2.566258430480957,9.278444290161133
1772458510526771700,6.047771728515625,1.8741756677627563,-2.581880569458008,9.273174285888672
1772458510536178700,6.0571787109375,1.877413272857666,-2.5860886573791504,9.271345138549805
1772458510549047000,6.070047119140625,1.8797353506088257,-2.5958523750305176,9.268145561218262
1772458510566256000,6.087256103515625,1.887983798980713,-2.619760274887085,9.25973892211914
1772458510586303700,6.1073037109375,1.8939129114151,-2.6370434761047363,9.253620147705078
1772458510596266500,6.1172666015625,1.8979250192642212,-2.643786668777466,9.250873565673828
1772458510606281700,6.12728173828125,1.8999696969985962,-2.645909309387207,9.249847412109375
1772458510617300500,6.138300537109375,1.9058164358139038,-2.6615660190582275,9.24415111541748
1772458510627339000,6.148339111328125,1.9089511632919312,-2.670027256011963,9.24106502532959
1772458510637309400,6.158309326171875,1.9129356145858765,-2.67844820022583,9.237802505493164
1772458510647636000,6.168635986328125,1.9165678024291992,-2.6862740516662598,9.234776496887207
1772458510657320000,6.17831982421875,1.9207918643951416,-2.692009687423706,9.232229232788086
1772458510667347700,6.18834765625,1.9241455793380737,-2.6966309547424316,9.230181694030762
1772458510677323000,6.198322998046875,1.927683711051941,-2.7014966011047363,9.228018760681152
1772458510697321000,6.218321044921875,1.9308357238769531,-2.706449031829834,9.225910186767578
1772458510708934100,6.22993408203125,1.932817816734314,-2.7164621353149414,9.222551345825195
1772458510717322800,6.23832275390625,1.9334677457809448,-2.7190141677856445,9.221661567687988
1772458510727332400,6.248332275390625,1.9345734119415283,-2.722139835357666,9.220507621765137
1772458510737314000,6.25831396484375,1.93502938747406,-2.7211525440216064,9.220703125
1772458510747649000,6.26864892578125,1.936694622039795,-2.72491192817688,9.219244956970215
1772458510757301200,6.27830126953125,1.9371544122695923,-2.723132848739624,9.219674110412598
1772458510767322400,6.288322265625,1.9367843866348267,-2.722553253173828,9.219921112060547
1772458510797322800,6.31832275390625,1.9340342283248901,-2.7105495929718018,9.224035263061523
1772458510807350300,6.328350341796875,1.9295310974121094,-2.7025458812713623,9.227325439453125
1772458510817378300,6.33837841796875,1.927954912185669,-2.6978607177734375,9.229026794433594
1772458510827413000,6.3484130859375,1.922345519065857,-2.6851837635040283,9.233893394470215
1772458510837382400,6.35838232421875,1.9206962585449219,-2.6801908016204834,9.235685348510742
1772458510848317700,6.369317626953125,1.914604663848877,-2.6636581420898438,9.241731643676758
1772458510857398500,6.3783984375,1.9118655920028687,-2.6526827812194824,9.245455741882324
1772458510869923600,6.390923583984375,1.907607913017273,-2.6367108821868896,9.250903129577637
1772458510877426000,6.398426025390625,1.906147837638855,-2.6249518394470215,9.254546165466309
1772458510887435800,6.408435791015625,1.9032284021377563,-2.610591411590576,9.259207725524902
1772458510907458800,6.428458740234375,1.8966493606567383,-2.582221031188965,9.268508911132812
1772458510927440400,6.4484404296875,1.8901848793029785,-2.5538811683654785,9.277676582336426
1772458510937463000,6.458463134765625,1.8873419761657715,-2.5399768352508545,9.282073020935059
1772458510947795200,6.468795166015625,1.8851567506790161,-2.5276150703430176,9.285888671875
1772458510957452000,6.4784521484375,1.8824448585510254,-2.5147855281829834,9.289921760559082
1772458510967483600,6.488483642578125,1.8794194459915161,-2.5037059783935547,9.293526649475098
1772458510977483000,6.49848291015625,1.8760794401168823,-2.492685556411743,9.297162055969238
1772458510987502000,6.508502197265625,1.8733556270599365,-2.4823989868164062,9.300464630126953
1772458510997464800,6.51846484375,1.8708547353744507,-2.4758777618408203,9.302705764770508
1772458511017520000,6.53852001953125,1.8647440671920776,-2.46518611907959,9.306771278381348
1772458511029151700,6.55015185546875,1.8615161180496216,-2.4592795372009277,9.308979034423828
1772458511047818000,6.56881787109375,1.8565400838851929,-2.457089900970459,9.310550689697266
1772458511057824300,6.57882421875,1.854518175125122,-2.458294153213501,9.310636520385742
1772458511067537000,6.588536865234375,1.8534847497940063,-2.4593515396118164,9.310562133789062
1772458511077492000,6.598491943359375,1.8547981977462769,-2.461860418319702,9.309638023376465
1772458511087495400,6.608495361328125,1.8511914014816284,-2.463070869445801,9.310036659240723
1772458511097487000,6.618487060546875,1.8526623249053955,-2.466590166091919,9.308810234069824
1772458511107531000,6.628531005859375,1.8541563749313354,-2.4699878692626953,9.307613372802734
1772458511127489000,6.648489013671875,1.8604843616485596,-2.479396343231201,9.303847312927246
1772458511137482200,6.658482177734375,1.8636139631271362,-2.4887635707855225,9.300719261169434
1772458511147812000,6.66881201171875,1.8680154085159302,-2.496009111404419,9.297896385192871
1772458511157462500,6.678462646484375,1.8711861371994019,-2.499840259552002,9.29622745513916
1772458511177472000,6.698471923828125,1.8811066150665283,-2.5175321102142334,9.289448738098145
1772458511189983200,6.710983154296875,1.8875823020935059,-2.5327727794647217,9.283990859985352
1772458511207506700,6.728506591796875,1.8985867500305176,-2.550266742706299,9.276954650878906
1772458511227529000,6.748529052734375,1.9096628427505493,-2.571434497833252,9.268835067749023
1772458511237489700,6.75848974609375,1.9147244691848755,-2.5819671154022217,9.264860153198242
1772458511247805200,6.76880517578125,1.9206773042678833,-2.5925686359405518,9.260669708251953
1772458511257534700,6.77853466796875,1.9257463216781616,-2.601508855819702,9.25710678100586
1772458511267558400,6.788558349609375,1.930848240852356,-2.6099326610565186,9.253673553466797
1772458511277514200,6.79851416015625,1.9337869882583618,-2.612337112426758,9.252381324768066
1772458511287520000,6.80852001953125,1.9376970529556274,-2.619138479232788,9.249639511108398
1772458511297519400,6.818519287109375,1.9428210258483887,-2.62943959236145,9.24563980102539
1772458511307550000,6.828550048828125,1.946838140487671,-2.634953022003174,9.2432279586792
1772458511317516000,6.83851611328125,1.949427604675293,-2.6367151737213135,9.242178916931152
1772458511349510100,6.87051025390625,1.961509108543396,-2.651379108428955,9.235424041748047
1772458511367625700,6.888625732421875,1.9705443382263184,-2.6601881980895996,9.230966567993164
1772458511377629400,6.89862939453125,1.9724799394607544,-2.662776470184326,9.229806900024414
1772458511387659300,6.9086591796875,1.9722882509231567,-2.6631081104278564,9.229751586914062
1772458511397629400,6.91862939453125,1.9734888076782227,-2.66984486579895,9.22754955291748
1772458511407641900,6.928641845703125,1.9742119312286377,-2.6671133041381836,9.228184700012207
1772458511417641000,6.938640869140625,1.9734280109405518,-2.6731972694396973,9.226592063903809
1772458511427671600,6.948671630859375,1.9720768928527832,-2.6772208213806152,9.225714683532715
1772458511447975700,6.9689755859375,1.970300555229187,-2.681560516357422,9.224833488464355
1772458511457659600,6.97865966796875,1.96889328956604,-2.687720537185669,9.22334098815918
1772458511467687700,6.988687744140625,1.9674404859542847,-2.6902213096618652,9.222922325134277
1772458511477646600,6.998646484375,1.9666770696640015,-2.6902198791503906,9.223085403442383
1772458511488260400,7.00926025390625,1.965166449546814,-2.693918228149414,9.22232723236084
1772458511497685200,7.018685302734375,1.9633623361587524,-2.694774866104126,9.222461700439453
1772458511510190000,7.031190185546875,1.9610350131988525,-2.6961872577667236,9.22254467010498
1772458511517691600,7.038691650390625,1.959554672241211,-2.695251703262329,9.223132133483887
1772458511527698700,7.04869873046875,1.9579224586486816,-2.695096731185913,9.223523139953613
1772458511548067300,7.0690673828125,1.9526742696762085,-2.695686101913452,9.224464416503906
1772458511567740400,7.088740478515625,1.9473075866699219,-2.692298173904419,9.226587295532227
1772458511577736700,7.09873681640625,1.9419764280319214,-2.6918466091156006,9.227843284606934
1772458511587773700,7.108773681640625,1.9414725303649902,-2.6884043216705322,9.228952407836914
1772458511607750100,7.128750244140625,1.9353801012039185,-2.681231737136841,9.232318878173828
1772458511617768200,7.138768310546875,1.9316461086273193,-2.6774251461029053,9.23420524597168
1772458511627801600,7.148801513671875,1.930259108543396,-2.673267364501953,9.235698699951172
1772458511637781800,7.15878173828125,1.9283643960952759,-2.668687343597412,9.237419128417969
1772458511657786000,7.1787861328125,1.928323745727539,-2.661940574645996,9.239375114440918
1772458511669452500,7.19045263671875,1.9246593713760376,-2.659491539001465,9.24084186553955
1772458511677786000,7.1987861328125,1.9252593517303467,-2.6588428020477295,9.240903854370117
1772458511687805700,7.2088056640625,1.9253727197647095,-2.6583521366119385,9.241023063659668
1772458511697794000,7.2187939453125,1.923933982849121,-2.658830165863037,9.241185188293457
1772458511707816400,7.22881640625,1.92279851436615,-2.6597766876220703,9.241148948669434
1772458511717773600,7.238773681640625,1.9211534261703491,-2.6607863903045654,9.24120044708252
1772458511727779800,7.24877978515625,1.920594573020935,-2.6614763736724854,9.241118431091309
1772458511737801500,7.258801513671875,1.9213165044784546,-2.6634113788604736,9.240409851074219
1772458511748132900,7.2691328125,1.9230238199234009,-2.6645331382751465,9.239731788635254
1772458511777787000,7.298786865234375,1.9315412044525146,-2.6650800704956055,9.237796783447266
1772458511787832600,7.30883251953125,1.9349217414855957,-2.6653358936309814,9.237015724182129
1772458511797788200,7.3187880859375,1.9386881589889526,-2.6649537086486816,9.236336708068848
1772458511808398600,7.329398681640625,1.943048357963562,-2.665523052215576,9.23525619506836
1772458511817782800,7.33878271484375,1.944907784461975,-2.6662001609802246,9.23466968536377
1772458511830288600,7.35128857421875,1.9481024742126465,-2.6681196689605713,9.233440399169922
1772458511848121300,7.369121337890625,1.9480094909667969,-2.6713762283325195,9.232519149780273
1772458511877826300,7.398826416015625,1.949554681777954,-2.674272060394287,9.231354713439941
1772458511887847000,7.408846923828125,1.9517256021499634,-2.6746819019317627,9.2307767868042
1772458511897833500,7.41883349609375,1.9526172876358032,-2.6754276752471924,9.23037338256836
1772458511907860200,7.428860107421875,1.9526193141937256,-2.677027702331543,9.229907989501953
1772458511917822500,7.438822509765625,1.9527370929718018,-2.677605152130127,9.229715347290039
1772458511927855400,7.44885546875,1.9515695571899414,-2.6801819801330566,9.22921371459961
1772458511937842400,7.458842529296875,1.950061559677124,-2.6796061992645264,9.22969913482666
1772458511948191700,7.469191650390625,1.9492945671081543,-2.6787052154541016,9.230122566223145
1772458511957846800,7.4788466796875,1.948498249053955,-2.67679762840271,9.230844497680664
1772458511968477700,7.489477783203125,1.948588490486145,-2.676509141921997,9.230910301208496
1772458511989479400,7.5104794921875,1.9470421075820923,-2.6734535694122314,9.232122421264648
1772458511997866200,7.5188662109375,1.9508345127105713,-2.670063018798828,9.232303619384766
1772458512007881500,7.528881591796875,1.950765609741211,-2.6679763793945312,9.232919692993164
1772458512027928000,7.548927978515625,1.9474308490753174,-2.665137529373169,9.234443664550781
1772458512037886500,7.558886474609375,1.9465081691741943,-2.6639678478240967,9.234975814819336
1772458512048204800,7.569204833984375,1.9473963975906372,-2.6630749702453613,9.23504638671875
1772458512057881300,7.57888134765625,1.9489219188690186,-2.6613962650299072,9.235207557678223
1772458512067903200,7.5889033203125,1.9497817754745483,-2.660508155822754,9.235281944274902
1772458512087876000,7.6088759765625,1.9513474702835083,-2.659311294555664,9.235296249389648
1772458512107880400,7.62888037109375,1.9504847526550293,-2.65751576423645,9.23599624633789
1772458512117843500,7.638843505859375,1.9493179321289062,-2.656581401824951,9.23651123046875
1772458512128472600,7.64947265625,1.948394775390625,-2.654660224914551,9.237257957458496
1772458512137887500,7.658887451171875,1.9486171007156372,-2.6524596214294434,9.23784351348877
1772458512150735400,7.6717353515625,1.9499492645263672,-2.650872230529785,9.238018035888672
1772458512158275600,7.679275634765625,1.9494264125823975,-2.6477508544921875,9.239023208618164
1772458512167956500,7.68895654296875,1.948801875114441,-2.6445047855377197,9.240083694458008
1772458512177933800,7.698933837890625,1.9484575986862183,-2.6417222023010254,9.240952491760254
1772458512207944400,7.7289443359375,1.945554494857788,-2.6365418434143066,9.243043899536133
1772458512217928000,7.738927978515625,1.946592926979065,-2.6354496479034424,9.24313735961914
1772458512227965200,7.748965087890625,1.946120023727417,-2.632890224456787,9.243966102600098
1772458512237908000,7.758907958984375,1.9447885751724243,-2.631030797958374,9.244775772094727
1772458512248244200,7.769244140625,1.9437334537506104,-2.6312246322631836,9.244941711425781
1772458512257918200,7.778918212890625,1.9434922933578491,-2.630769729614258,9.245121955871582
1772458512267962000,7.788962158203125,1.941398024559021,-2.630307674407959,9.245694160461426
1772458512288550000,7.8095498046875,1.9400173425674438,-2.6309592723846436,9.24579906463623
1772458512309606100,7.830606201171875,1.9370956420898438,-2.6331140995025635,9.245798110961914
1772458512317956900,7.838956787109375,1.9360920190811157,-2.6332693099975586,9.245963096618652
1772458512327963000,7.848962890625,1.9354320764541626,-2.6338276863098145,9.245943069458008
1772458512337956600,7.85895654296875,1.9364973306655884,-2.633667469024658,9.24576473236084
1772458512348290300,7.869290283203125,1.9375132322311401,-2.6335484981536865,9.245585441589355
1772458512357938400,7.8789384765625,1.9388222694396973,-2.6328377723693848,9.245512962341309
1772458512367956700,7.888956787109375,1.939030408859253,-2.633007287979126,9.24542236328125
1772458512387973000,7.90897314453125,1.9395421743392944,-2.6338202953338623,9.245081901550293
1772458512417953800,7.938953857421875,1.9385727643966675,-2.6422386169433594,9.242884635925293
1772458512427979800,7.948979736328125,1.9373092651367188,-2.645792245864868,9.242133140563965
1772458512437934800,7.958934814453125,1.9362609386444092,-2.648346185684204,9.241621017456055
1772458512448859100,7.969859130859375,1.934767484664917,-2.6518309116363525,9.240934371948242
1772458512457950200,7.9789501953125,1.9343758821487427,-2.6568288803100586,9.239580154418945
1772458512470449700,7.99144970703125,1.9317636489868164,-2.662125587463379,9.238602638244629
1772458512477952500,7.998952392578125,1.9312492609024048,-2.665397882461548,9.237765312194824
1772458512487952400,8.008952392578125,1.9308804273605347,-2.666376829147339,9.237560272216797
1772458512497941200,8.018941162109375,1.9281548261642456,-2.6739790439605713,9.235933303833008
1772458512527948800,8.04894873046875,1.9241735935211182,-2.6804823875427246,9.234878540039062
1772458512537967000,8.058967041015626,1.9211913347244263,-2.685405731201172,9.234067916870117
1772458512548313600,8.069313720703125,1.9188214540481567,-2.6873040199279785,9.234007835388184
1772458512557980400,8.07898046875,1.9171091318130493,-2.6882119178771973,9.234100341796875
1772458512567999500,8.08899951171875,1.9155527353286743,-2.6899502277374268,9.233915328979492
1772458512578013000,8.099012939453125,1.9138798713684082,-2.6905713081359863,9.234081268310547
1772458512588052000,8.109052001953126,1.9131337404251099,-2.689370632171631,9.234587669372559
1772458512598040600,8.11904052734375,1.9105641841888428,-2.6906166076660156,9.234756469726562
1772458512608679000,8.129678955078125,1.9063977003097534,-2.692819833755493,9.234973907470703
1772458512629722600,8.15072265625,1.9031798839569092,-2.693925142288208,9.23531723022461
1772458512648457700,8.169457763671875,1.8993310928344727,-2.6937224864959717,9.23616886138916
1772458512658165000,8.1791650390625,1.897743582725525,-2.6937592029571533,9.23648452758789
1772458512668203500,8.18920361328125,1.8968299627304077,-2.6922221183776855,9.2371187210083
1772458512678201300,8.199201416015624,1.8914214372634888,-2.6926019191741943,9.238118171691895
1772458512688214800,8.20921484375,1.8893001079559326,-2.6913464069366455,9.23891830444336
1772458512698237700,8.21923779296875,1.8866040706634521,-2.6902220249176025,9.239795684814453
1772458512708274400,8.2292744140625,1.8830013275146484,-2.689168930053711,9.240839004516602
1772458512718249000,8.2392490234375,1.8807073831558228,-2.6876282691955566,9.241751670837402
1772458512738293800,8.259293701171876,1.876899242401123,-2.680168628692627,9.2446928024292
1772458512748647000,8.26964697265625,1.8731956481933594,-2.677671432495117,9.246167182922363
1772458512758311000,8.279310791015625,1.8675448894500732,-2.673649311065674,9.248472213745117
1772458512768330500,8.28933056640625,1.8636916875839233,-2.6706011295318604,9.25013256072998
1772458512778326300,8.299326171875,1.8625261783599854,-2.668999433517456,9.250829696655273
1772458512798352600,8.3193525390625,1.8546667098999023,-2.6609840393066406,9.254715919494629
1772458512808375300,8.329375244140625,1.8462419509887695,-2.65531063079834,9.258030891418457
1772458512858430200,8.37943017578125,1.8043688535690308,-2.6366450786590576,9.27160930633545
1772458512868467500,8.389467529296875,1.7945047616958618,-2.6322224140167236,9.274781227111816
1772458512878440000,8.39943994140625,1.783408522605896,-2.627692461013794,9.278203964233398
1772458512898470000,8.419469970703124,1.767970085144043,-2.613804578781128,9.285079002380371
1772458512908517600,8.429517578125,1.7692396640777588,-2.607875347137451,9.286504745483398
1772458512918498000,8.439498046875,1.7629244327545166,-2.5938408374786377,9.291633605957031
1772458512928523300,8.449523193359376,1.7673031091690063,-2.58479380607605,9.29332447052002
1772458512938772500,8.4597724609375,1.772123098373413,-2.576012372970581,9.294843673706055
1772458512948910000,8.46991015625,1.7749135494232178,-2.563729763031006,9.297708511352539
1772458512988662800,8.509662841796874,1.7928824424743652,-2.54666805267334,9.298949241638184
1772458512998645200,8.519645263671874,1.7959545850753784,-2.5438456535339355,9.299129486083984
1772458513008676400,8.52967626953125,1.8022633790969849,-2.539828300476074,9.299006462097168
1772458513028725000,8.54972509765625,1.803741693496704,-2.535623788833618,9.299866676330566
1772458513038704400,8.559704345703125,1.8071125745773315,-2.534602642059326,9.299490928649902
1772458513049038300,8.570038330078125,1.8105623722076416,-2.5317180156707764,9.299605369567871
1772458513058736600,8.579736572265626,1.8143881559371948,-2.5278069972991943,9.29992389678955
1772458513068785400,8.589785400390625,1.816672444343567,-2.5260791778564453,9.299945831298828
1772458513078765000,8.59976513671875,1.817486047744751,-2.525017023086548,9.300076484680176
1772458513088801500,8.609801513671876,1.8191519975662231,-2.5244603157043457,9.299901962280273
1772458513098810600,8.619810546875,1.8214129209518433,-2.5244216918945312,9.299468994140625
1772458513108858600,8.629858642578125,1.8250380754470825,-2.5219101905822754,9.299440383911133
1772458513118840800,8.6398408203125,1.82928466796875,-2.521156072616577,9.298810958862305
1772458513128869600,8.64986962890625,1.832431674003601,-2.5204896926879883,9.298372268676758
1772458513138876400,8.65987646484375,1.833878993988037,-2.51971173286438,9.298296928405762
1772458513168935200,8.68993505859375,1.8442302942276,-2.5179553031921387,9.29672622680664
1772458513178945000,8.699945068359375,1.8482733964920044,-2.5160224437713623,9.29644775390625
1772458513188990700,8.70999072265625,1.8502140045166016,-2.5151360034942627,9.296300888061523
1772458513198973400,8.719973388671875,1.853015661239624,-2.5168168544769287,9.295287132263184
1772458513209036000,8.7300361328125,1.8542197942733765,-2.516261577606201,9.295197486877441
1772458513219020300,8.740020263671875,1.8545161485671997,-2.5188446044921875,9.294439315795898
1772458513229080300,8.750080322265624,1.8534207344055176,-2.5192768573760986,9.294540405273438
1772458513249399800,8.77039990234375,1.8480325937271118,-2.5234711170196533,9.294475555419922
1772458513279133700,8.8001337890625,1.8405957221984863,-2.5303173065185547,9.294088363647461
1772458513289327900,8.810327880859376,1.8376433849334717,-2.5324645042419434,9.294088363647461
1772458513299183000,8.82018310546875,1.8356611728668213,-2.5347728729248047,9.293851852416992
1772458513309206300,8.830206298828125,1.8317145109176636,-2.539252519607544,9.29340648651123
1772458513319196000,8.84019580078125,1.8291308879852295,-2.5427844524383545,9.292951583862305
1772458513329252000,8.850252197265625,1.8276011943817139,-2.543527841567993,9.293047904968262
1772458513339261000,8.860260986328125,1.824441909790039,-2.5486133098602295,9.292276382446289
1772458513349601500,8.8706015625,1.8222242593765259,-2.5526726245880127,9.291595458984375
1772458513359286800,8.880286865234375,1.8190215826034546,-2.559574604034424,9.290324211120605
1772458513379340300,8.90034033203125,1.8190572261810303,-2.5638697147369385,9.289132118225098
1772458513389368000,8.9103681640625,1.8184067010879517,-2.5678510665893555,9.28816032409668
1772458513399366700,8.92036669921875,1.8193799257278442,-2.5686771869659424,9.28774356842041
1772458513409421300,8.93042138671875,1.8184230327606201,-2.5728306770324707,9.286781311035156
1772458513419409000,8.940408935546875,1.8195593357086182,-2.572939157485962,9.286526679992676
1772458513429440000,8.95043994140625,1.8192542791366577,-2.575352668762207,9.285918235778809
1772458513449807000,8.97080712890625,1.8178584575653076,-2.576962947845459,9.285744667053223
1772458513459487000,8.980487060546874,1.817626953125,-2.5765793323516846,9.285896301269531
1772458513489566000,9.01056591796875,1.8140193223953247,-2.576380729675293,9.286657333374023
1772458513499544000,9.0205439453125,1.812980055809021,-2.576726198196411,9.286764144897461
1772458513509562400,9.030562255859374,1.8128234148025513,-2.57757830619812,9.286558151245117
1772458513519558000,9.040557861328125,1.8086090087890625,-2.5779902935028076,9.28726577758789
1772458513529609200,9.050609130859375,1.8068103790283203,-2.577606201171875,9.28772258758545
1772458513539594500,9.060594482421875,1.8042595386505127,-2.5762104988098145,9.288604736328125
1772458513549926000,9.07092578125,1.802721619606018,-2.575789213180542,9.289020538330078
1772458513559608800,9.08060888671875,1.8034517765045166,-2.5764381885528564,9.28869915008545
1772458513599684600,9.1206845703125,1.7959587574005127,-2.576181173324585,9.290223121643066
1772458513609742600,9.13074267578125,1.7964777946472168,-2.5761194229125977,9.290138244628906
1772458513630794800,9.151794677734374,1.7936493158340454,-2.576599597930908,9.290552139282227
1772458513640790800,9.161790771484375,1.7938035726547241,-2.5764546394348145,9.29056167602539
1772458513651150300,9.172150390625,1.7930665016174316,-2.577620029449463,9.29038143157959
1772458513660832000,9.18183203125,1.7894290685653687,-2.5803284645080566,9.29033088684082
1772458513670856200,9.191856201171875,1.7866549491882324,-2.5821008682250977,9.290371894836426
1772458513680848600,9.2018486328125,1.786264419555664,-2.5834944248199463,9.290060043334961
1772458513700883500,9.221883544921875,1.7837930917739868,-2.5882086753845215,9.28922176361084
1772458513710918700,9.231918701171875,1.7825977802276611,-2.5897605419158936,9.289018630981445
1772458513720920600,9.241920654296875,1.7818478345870972,-2.5905871391296387,9.288933753967285
1772458513730967300,9.25196728515625,1.7808055877685547,-2.591834306716919,9.288785934448242
1772458513740968400,9.261968505859375,1.778770923614502,-2.5963263511657715,9.287919998168945
1772458513751303200,9.27230322265625,1.7770260572433472,-2.599975109100342,9.287233352661133
1772458513760989700,9.28198974609375,1.7763298749923706,-2.6039113998413086,9.286263465881348
1772458513771031300,9.29203125,1.7757331132888794,-2.608238458633423,9.285163879394531
1772458513781001700,9.302001708984376,1.7760089635849,-2.6137843132019043,9.283551216125488
1772458513791016200,9.31201611328125,1.777100920677185,-2.6151726245880127,9.282950401306152
1772458513801004800,9.3220048828125,1.7777655124664307,-2.6200618743896484,9.281445503234863
1772458513811044900,9.332044921875,1.7773785591125488,-2.6248114109039307,9.280177116394043
1772458513821020200,9.342020263671875,1.7761166095733643,-2.6333184242248535,9.278009414672852
1772458513831045000,9.352045166015625,1.7759137153625488,-2.6374106407165527,9.276885986328125
1772458513841040100,9.3620400390625,1.7756022214889526,-2.640554666519165,9.276049613952637
1772458513851396000,9.37239599609375,1.7755039930343628,-2.6446993350982666,9.274887084960938
1772458513861086000,9.3820859375,1.7753409147262573,-2.646796226501465,9.27431869506836
1772458513871120100,9.3921201171875,1.7740262746810913,-2.647794246673584,9.274285316467285
1772458513881120800,9.402120849609375,1.7744301557540894,-2.6469380855560303,9.274455070495605
1772458513891169800,9.412169677734376,1.7745225429534912,-2.6475930213928223,9.274250030517578
1772458513901152500,9.422152587890626,1.774315595626831,-2.646665573120117,9.274554252624512
1772458513911193900,9.43219384765625,1.7732489109039307,-2.6464731693267822,9.27481460571289
1772458513921193500,9.442193359375,1.7720903158187866,-2.6468186378479004,9.274934768676758
1772458513931240200,9.452240234375,1.772423505783081,-2.6460487842559814,9.275091171264648
1772458513941234400,9.462234375,1.7741987705230713,-2.6447503566741943,9.27512264251709
1772458513951904000,9.472904052734375,1.7729548215866089,-2.6446239948272705,9.275397300720215
1772458513961270500,9.4822705078125,1.7749282121658325,-2.6428983211517334,9.275511741638184
1772458513971322600,9.492322509765625,1.7772446870803833,-2.640937566757202,9.275626182556152
1772458513981343000,9.502343017578125,1.7814836502075195,-2.639056444168091,9.275348663330078
1772458513991375400,9.512375244140625,1.7837188243865967,-2.636875867843628,9.275538444519043
1772458514001386200,9.52238623046875,1.7850351333618164,-2.6352877616882324,9.275736808776855
1772458514021412600,9.54241259765625,1.787302017211914,-2.632124900817871,9.276199340820312
1772458514032042500,9.55304248046875,1.787536382675171,-2.6296193599700928,9.276864051818848
1772458514041427500,9.562427490234375,1.788981318473816,-2.62837815284729,9.276937484741211
1772458514053415200,9.574415283203125,1.7894244194030762,-2.6258764266967773,9.277559280395508
1772458514061485600,9.582485595703124,1.7899837493896484,-2.6252663135528564,9.277624130249023
1772458514071509800,9.592509765625,1.7896119356155396,-2.6233081817626953,9.278250694274902
1772458514081501700,9.602501708984375,1.790082573890686,-2.621053457260132,9.278796195983887
1772458514091549400,9.612549560546874,1.7905402183532715,-2.6166865825653076,9.279940605163574
1772458514101528800,9.62252880859375,1.7910165786743164,-2.612107992172241,9.28113842010498
1772458514121538000,9.6425380859375,1.7907840013504028,-2.6037168502807617,9.283541679382324
1772458514131592000,9.652592041015625,1.7916227579116821,-2.601250410079956,9.284071922302246
1772458514141598000,9.662597900390624,1.792445182800293,-2.5937633514404297,9.286006927490234
1772458514151936300,9.672936279296875,1.7925708293914795,-2.5882956981658936,9.287508964538574
1772458514161627100,9.682627197265624,1.7947089672088623,-2.5844335556030273,9.28817081451416
1772458514171674400,9.69267431640625,1.7954940795898438,-2.575939893722534,9.290377616882324
1772458514181650200,9.702650146484375,1.7962498664855957,-2.5706558227539062,9.29169750213623
1772458514192276200,9.713276123046874,1.7967969179153442,-2.566769599914551,9.292664527893066
1772458514201661000,9.722660888671875,1.7977304458618164,-2.5598342418670654,9.29439640045166
1772458514214197500,9.735197509765625,1.7985581159591675,-2.555457592010498,9.295441627502441
1772458514231723000,9.752722900390625,1.7976527214050293,-2.5467605590820312,9.298002243041992
1772458514241727500,9.7627275390625,1.796661376953125,-2.543168783187866,9.299177169799805
1772458514252093700,9.77309375,1.7960048913955688,-2.5402395725250244,9.300104141235352
1772458514261768700,9.782768798828124,1.7946581840515137,-2.5354230403900146,9.301678657531738
1772458514271789000,9.7927890625,1.7915526628494263,-2.528722047805786,9.304100036621094
1772458514281782500,9.802782470703125,1.7898136377334595,-2.5229127407073975,9.306013107299805
1772458514291848200,9.81284814453125,1.787498950958252,-2.5181448459625244,9.307746887207031
1772458514301822200,9.822822265625,1.7841659784317017,-2.5139362812042236,9.309524536132812
1772458514311840500,9.832840576171876,1.781701683998108,-2.509331703186035,9.311240196228027
1772458514321824800,9.84282470703125,1.7795459032058716,-2.5039708614349365,9.313095092773438
1772458514341866500,9.862866455078125,1.777657389640808,-2.49701189994812,9.315322875976562
1772458514352811000,9.87381103515625,1.7747464179992676,-2.49208402633667,9.31719970703125
1772458514361895400,9.8828955078125,1.7740999460220337,-2.4898159503936768,9.317928314208984
1772458514373586400,9.89458642578125,1.772754430770874,-2.4868686199188232,9.318971633911133
1772458514381949700,9.90294970703125,1.772408366203308,-2.483466148376465,9.319944381713867
1772458514391981000,9.91298095703125,1.7711007595062256,-2.4808225631713867,9.320897102355957
1772458514401965000,9.922965087890624,1.7705845832824707,-2.4775614738464355,9.32186222076416
1772458514412013000,9.933012939453125,1.7699791193008423,-2.4744486808776855,9.32280445098877
1772458514421989400,9.9429892578125,1.768811821937561,-2.471837043762207,9.32371711730957
1772458514452369200,9.973369140625,1.7651643753051758,-2.463758707046509,9.326547622680664
1772458514462019000,9.98301904296875,1.7631319761276245,-2.462547540664673,9.327250480651855
1772458514472027100,9.993027099609375,1.761232852935791,-2.460498094558716,9.328150749206543
1772458514482101800,10.003101806640625,1.7594512701034546,-2.459109306335449,9.328853607177734
1772458514492050400,10.013050537109375,1.7609447240829468,-2.4579412937164307,9.328879356384277
1772458514502015700,10.023015625,1.7594494819641113,-2.4557580947875977,9.329736709594727
1772458514512633300,10.03363330078125,1.7581454515457153,-2.452519416809082,9.33083438873291
1772458514522005500,10.043005615234375,1.7569711208343506,-2.448087692260742,9.332221031188965
1772458514534555100,10.05555517578125,1.7564619779586792,-2.4453446865081787,9.33303451538086
1772458514572066800,10.09306689453125,1.761587142944336,-2.4357802867889404,9.334568977355957
1772458514582046000,10.1030458984375,1.7639350891113281,-2.434508800506592,9.334457397460938
1772458514592054500,10.113054443359376,1.764534831047058,-2.4328205585479736,9.334784507751465
1772458514602028800,10.12302880859375,1.7653578519821167,-2.430824041366577,9.335148811340332
1772458514612056000,10.13305615234375,1.7663707733154297,-2.4271862506866455,9.33590316772461
1772458514622042000,10.1430419921875,1.7684341669082642,-2.42496395111084,9.336090087890625
1772458514632060400,10.153060302734374,1.770064353942871,-2.4224555492401123,9.336432456970215
1772458514642036000,10.163035888671875,1.77199387550354,-2.420158863067627,9.336662292480469
1772458514672649200,10.193649169921875,1.7752012014389038,-2.4169275760650635,9.33689022064209
1772458514682019800,10.203019775390626,1.7751106023788452,-2.4148969650268555,9.337433815002441
1772458514693643800,10.214643798828124,1.7757307291030884,-2.414299964904785,9.337469100952148
1772458514702037800,10.223037841796875,1.7754987478256226,-2.4116525650024414,9.338197708129883
1772458514712041500,10.23304150390625,1.7766292095184326,-2.410026788711548,9.338403701782227
1772458514722020000,10.24302001953125,1.7781810760498047,-2.408992052078247,9.338373184204102
1772458514732054300,10.25305419921875,1.7801655530929565,-2.4077513217926025,9.338315963745117
1772458514742022000,10.26302197265625,1.7814433574676514,-2.40690279006958,9.338290214538574
1772458514752332800,10.273332763671876,1.7828327417373657,-2.4062259197235107,9.338200569152832
1772458514792004000,10.313004150390626,1.7871850728988647,-2.4007771015167236,9.33877182006836
1772458514801987300,10.3229873046875,1.7872072458267212,-2.3993561267852783,9.339130401611328
1772458514812018200,10.33301806640625,1.7876924276351929,-2.398913621902466,9.339153289794922
1772458514822001700,10.343001708984374,1.7878718376159668,-2.3988211154937744,9.339140892028809
1772458514832623000,10.353623046875,1.7882477045059204,-2.3979885578155518,9.33928394317627
1772458514841999400,10.362999267578125,1.7890210151672363,-2.397449016571045,9.339274406433105
1772458514854824400,10.375824462890625,1.789145588874817,-2.397289991378784,9.339290618896484
1772458514872046000,10.393046142578125,1.7897751331329346,-2.396205186843872,9.339448928833008
1772458514882031400,10.40303125,1.7896493673324585,-2.3965835571289062,9.339375495910645
1772458514892060000,10.413059814453124,1.7897814512252808,-2.396803617477417,9.33929443359375
1772458514902037500,10.42303759765625,1.7905150651931763,-2.397306442260742,9.33902359008789
1772458514912057300,10.433057373046875,1.7910586595535278,-2.397517204284668,9.338866233825684
1772458514922058500,10.44305859375,1.7916467189788818,-2.3986401557922363,9.338464736938477
1772458514932092400,10.453092529296875,1.7913755178451538,-2.399169445037842,9.338380813598633
1772458514942085000,10.463085205078125,1.790605068206787,-2.399810791015625,9.338363647460938
1772458514952404500,10.473404541015626,1.7916122674942017,-2.3991737365722656,9.338333129882812
1772458514962070300,10.4830703125,1.7917466163635254,-2.399306058883667,9.338274955749512
1772458514992679000,10.513678955078126,1.7913310527801514,-2.4023919105529785,9.337560653686523
1772458515002047500,10.523047607421875,1.7921067476272583,-2.403275728225708,9.337183952331543
1772458515013710600,10.534710693359376,1.7932565212249756,-2.4047114849090576,9.336593627929688
1772458515022044000,10.5430439453125,1.7934393882751465,-2.403663158416748,9.336828231811523
1772458515032065000,10.55306494140625,1.7931880950927734,-2.406418800354004,9.33616828918457
1772458515042056200,10.56305615234375,1.7938532829284668,-2.40740966796875,9.335783958435059
1772458515052431000,10.57343115234375,1.7936300039291382,-2.407982587814331,9.335679054260254
1772458515062140000,10.583139892578124,1.7928987741470337,-2.410268783569336,9.335229873657227
1772458515092178000,10.613177978515624,1.7937936782836914,-2.413548707962036,9.334211349487305
1772458515102135000,10.623135009765624,1.7946815490722656,-2.4134058952331543,9.334076881408691
1772458515112157400,10.633157470703125,1.7939783334732056,-2.416192054748535,9.333491325378418
1772458515122126000,10.6431259765625,1.7934961318969727,-2.417651891708374,9.333206176757812
1772458515132143900,10.653143798828125,1.7928520441055298,-2.4185919761657715,9.333084106445312
1772458515142102300,10.663102294921876,1.7936153411865234,-2.418511390686035,9.332959175109863
1772458515153017900,10.674017822265625,1.7926702499389648,-2.4196271896362305,9.332853317260742
1772458515162127400,10.68312744140625,1.7928847074508667,-2.420203685760498,9.332661628723145
1772458515174679300,10.69567919921875,1.793403148651123,-2.4220032691955566,9.3320951461792
1772458515212277200,10.73327734375,1.7957278490066528,-2.4255645275115967,9.33072280883789
1772458515222236200,10.743236083984375,1.7963848114013672,-2.4259183406829834,9.330504417419434
1772458515232231200,10.753231201171875,1.7966479063034058,-2.426515579223633,9.330299377441406
1772458515242213600,10.763213623046875,1.7959120273590088,-2.427598714828491,9.330159187316895
1772458515252590800,10.7735908203125,1.7960522174835205,-2.427733898162842,9.330097198486328
1772458515262226000,10.783225830078125,1.7962422370910645,-2.4278814792633057,9.330020904541016
1772458515272239600,10.793239501953124,1.7965350151062012,-2.4293296337127686,9.329588890075684
1772458515282213000,10.803213134765626,1.797158122062683,-2.4298458099365234,9.32933235168457
1772458515312856000,10.83385595703125,1.796010136604309,-2.43584942817688,9.327988624572754
1772458515322224400,10.843224365234375,1.7972522974014282,-2.4354372024536133,9.32785701751709
1772458515333851000,10.854850830078124,1.7991174459457397,-2.435138463973999,9.32757568359375
1772458515342220300,10.86322021484375,1.7998347282409668,-2.435612916946411,9.327313423156738
1772458515352571000,10.87357080078125,1.7993332147598267,-2.437457799911499,9.32692813873291
1772458515362236200,10.883236083984375,1.8011165857315063,-2.4391794204711914,9.32613468170166
1772458515372299500,10.893299560546875,1.8022551536560059,-2.4387362003326416,9.326029777526855
1772458515382298000,10.903298095703125,1.8030449151992798,-2.4421703815460205,9.324978828430176
1772458515402369000,10.923369140625,1.8060189485549927,-2.4438133239746094,9.323972702026367
1772458515412404000,10.933404052734375,1.8070974349975586,-2.446174383163452,9.323144912719727
1772458515422348300,10.943348388671875,1.8088001012802124,-2.4467999935150146,9.322650909423828
1772458515432364500,10.953364501953125,1.8097336292266846,-2.4476735591888428,9.32223892211914
1772458515442365000,10.963364990234375,1.8114467859268188,-2.4487903118133545,9.321612358093262
1772458515452737000,10.973737060546876,1.8128443956375122,-2.4502439498901367,9.320959091186523
1772458515462378800,10.983378662109375,1.813736915588379,-2.450835943222046,9.320630073547363
1772458515473005300,10.99400537109375,1.8140251636505127,-2.4526498317718506,9.320099830627441
1772458515482379800,11.0033798828125,1.8139047622680664,-2.4537832736968994,9.319823265075684
1772458515494900200,11.015900146484375,1.812827467918396,-2.454771041870117,9.319772720336914
1772458515512411100,11.0334111328125,1.8136937618255615,-2.4564337730407715,9.31916618347168
1772458515522396200,11.043396240234374,1.8121751546859741,-2.458336353302002,9.318958282470703
1772458515532435700,11.053435791015625,1.8138514757156372,-2.4577903747558594,9.318778038024902
1772458515542387000,11.063386962890625,1.8153929710388184,-2.4581751823425293,9.318373680114746
1772458515552720400,11.073720458984376,1.8162001371383667,-2.4576454162597656,9.318357467651367
1772458515562392000,11.08339208984375,1.8195903301239014,-2.457679033279419,9.31768798828125
1772458515572432400,11.093432373046875,1.8193928003311157,-2.4570517539978027,9.317891120910645
1772458515582388700,11.103388671875,1.8212521076202393,-2.4566268920898438,9.317641258239746
1772458515592432600,11.1134326171875,1.8239730596542358,-2.4560954570770264,9.317248344421387
1772458515602435600,11.123435546875,1.826590657234192,-2.4572291374206543,9.316435813903809
1772458515633067800,11.15406787109375,1.834793210029602,-2.4592103958129883,9.314302444458008
1772458515642434600,11.1634345703125,1.8359096050262451,-2.4587554931640625,9.314202308654785
1772458515654422500,11.175422607421876,1.83712899684906,-2.459711790084839,9.313708305358887
1772458515662493400,11.183493408203125,1.8384259939193726,-2.4603631496429443,9.313281059265137
1772458515672533500,11.193533447265626,1.8396166563034058,-2.4617669582366943,9.312674522399902
1772458515682518000,11.20351806640625,1.8396927118301392,-2.4636361598968506,9.312165260314941
1772458515692567000,11.213567138671875,1.8401427268981934,-2.4644036293029785,9.311872482299805
1772458515702509800,11.223509765625,1.8389959335327148,-2.467686891555786,9.31123161315918
1772458515712523800,11.233523681640625,1.8389596939086914,-2.468519449234009,9.311016082763672
1772458515732521700,11.253521728515626,1.8357658386230469,-2.473858594894409,9.310230255126953
1772458515742489000,11.263489013671874,1.8336983919143677,-2.475682020187378,9.310153007507324
1772458515752821500,11.273821533203124,1.83128023147583,-2.4778826236724854,9.310044288635254
1772458515762480400,11.28348046875,1.8289304971694946,-2.4797470569610596,9.310009002685547
1772458515772532700,11.29353271484375,1.825359582901001,-2.481376886367798,9.31027603149414
1772458515782503700,11.303503662109375,1.82174551486969,-2.483128309249878,9.310515403747559
1772458515793129200,11.314129150390626,1.8172610998153687,-2.4853217601776123,9.310808181762695
1772458515802485500,11.323485595703126,1.8135370016098022,-2.4869980812072754,9.311086654663086
1772458515815009800,11.336009765625,1.8074615001678467,-2.488516330718994,9.311860084533691
1772458515832553700,11.3535537109375,1.8010540008544922,-2.4874212741851807,9.313394546508789
1772458515842478600,11.363478515625,1.798945665359497,-2.487694263458252,9.31373119354248
1772458515852822500,11.373822509765626,1.7979449033737183,-2.4881327152252197,9.313807487487793
1772458515862455300,11.383455322265625,1.7969704866409302,-2.48810076713562,9.314003944396973
1772458515872489200,11.3934892578125,1.79653799533844,-2.4879558086395264,9.314125061035156
1772458515882500600,11.40350048828125,1.7964544296264648,-2.4876930713653564,9.31421184539795
1772458515892534800,11.41353466796875,1.7962509393692017,-2.4880194664001465,9.314163208007812
1772458515902497000,11.4234970703125,1.7958927154541016,-2.4877216815948486,9.314311027526855
1772458515912548900,11.433548828125,1.793128490447998,-2.4871950149536133,9.314985275268555
1772458515942567700,11.463567626953125,1.7912392616271973,-2.488218307495117,9.315074920654297
1772458515953503000,11.4745029296875,1.7899410724639893,-2.4914193153381348,9.314469337463379
1772458515962567400,11.4835673828125,1.7885013818740845,-2.496335506439209,9.313427925109863
1772458515974191400,11.49519140625,1.78598153591156,-2.5049562454223633,9.311598777770996
1772458515982567000,11.50356689453125,1.784392237663269,-2.5127511024475098,9.309802055358887
1772458515992585000,11.5135849609375,1.7834604978561401,-2.5167975425720215,9.30888843536377
1772458516002551300,11.52355126953125,1.7811486721038818,-2.5362446308135986,9.304052352905273
1772458516012579800,11.533579833984374,1.778194546699524,-2.5497026443481445,9.300938606262207
1772458516022577200,11.5435771484375,1.774673342704773,-2.5631351470947266,9.297919273376465
1772458516042601200,11.563601318359375,1.7698235511779785,-2.588634490966797,9.291776657104492
1772458516052948500,11.573948486328124,1.7699193954467773,-2.5917117595672607,9.290898323059082
1772458516062592300,11.58359228515625,1.765976905822754,-2.6086621284484863,9.286906242370605
1772458516072616200,11.5936162109375,1.7624907493591309,-2.617406129837036,9.28510856628418
1772458516082582800,11.603582763671875,1.75845468044281,-2.62530255317688,9.28364372253418
1772458516092614400,11.613614501953125,1.7572177648544312,-2.6276259422302246,9.283219337463379
1772458516102558700,11.623558837890625,1.7486568689346313,-2.640073537826538,9.281303405761719
1772458516113184800,11.634184814453125,1.7410428524017334,-2.6512644290924072,9.279545783996582
1772458516122560300,11.643560302734375,1.7359154224395752,-2.6619598865509033,9.277442932128906
1772458516135085300,11.656085205078124,1.7343244552612305,-2.667276620864868,9.276213645935059
1772458516152915200,11.673915283203126,1.7278251647949219,-2.700129270553589,9.26791763305664
1772458516162573000,11.683572998046875,1.72982656955719,-2.707289934158325,9.265456199645996
1772458516172617000,11.693616943359375,1.731063961982727,-2.7309908866882324,9.25826644897461
1772458516182561000,11.70356103515625,1.7333061695098877,-2.7473535537719727,9.25300407409668
1772458516192578800,11.713578857421876,1.7349498271942139,-2.7635364532470703,9.247876167297363
1772458516202554400,11.723554443359374,1.7366355657577515,-2.778825521469116,9.242977142333984
1772458516212638000,11.733637939453125,1.7404046058654785,-2.792369842529297,9.23818588256836
1772458516222621700,11.74362158203125,1.7444138526916504,-2.8040921688079834,9.233878135681152
1772458516232636400,11.753636474609374,1.7474452257156372,-2.8142268657684326,9.230220794677734
1772458516242603300,11.763603271484374,1.7496821880340576,-2.821962833404541,9.227434158325195
1772458516273271300,11.794271240234375,1.7479361295700073,-2.8348031044006348,9.22382640838623
1772458516282616000,11.803615966796874,1.7453677654266357,-2.8374061584472656,9.22351360321045
1772458516294284000,11.815283935546875,1.742059350013733,-2.8418514728546143,9.222771644592285
1772458516302631000,11.823630859375,1.7409014701843262,-2.844913959503174,9.222044944763184
1772458516312677000,11.833677001953125,1.7393466234207153,-2.849045991897583,9.221061706542969
1772458516322658800,11.843658935546875,1.7385932207107544,-2.8525550365448,9.22011947631836
1772458516332707300,11.853707275390626,1.739070177078247,-2.855740785598755,9.21904468536377
1772458516342656800,11.86365673828125,1.740028738975525,-2.8606984615325928,9.217326164245605
1772458516352994000,11.873994140625,1.7406729459762573,-2.8659214973449707,9.215579986572266
1772458516372696300,11.8936962890625,1.7397218942642212,-2.8708388805389404,9.214231491088867
1772458516382636000,11.903635986328124,1.7384581565856934,-2.874293565750122,9.21339225769043
1772458516392654800,11.91365478515625,1.7361112833023071,-2.8770687580108643,9.212967872619629
1772458516402616300,11.9236162109375,1.7361030578613281,-2.8747029304504395,9.213708877563477
1772458516412672500,11.933672607421874,1.7372061014175415,-2.8723483085632324,9.214235305786133
1772458516422616600,11.943616455078125,1.7361207008361816,-2.8687472343444824,9.215561866760254
1772458516433239300,11.9542392578125,1.7366993427276611,-2.863367795944214,9.217124938964844
1772458516442594300,11.96359423828125,1.7358120679855347,-2.858659029006958,9.218751907348633
1772458516455419000,11.9764189453125,1.7324732542037964,-2.853140354156494,9.221092224121094
1772458516482594000,12.003593994140624,1.7303146123886108,-2.844454765319824,9.224178314208984
1772458516492637000,12.013636962890626,1.7273019552230835,-2.8391382694244385,9.226380348205566
1772458516502592800,12.0235927734375,1.727897047996521,-2.8387560844421387,9.226387977600098
1772458516512632800,12.0336328125,1.7277696132659912,-2.8345139026641846,9.227716445922852
1772458516522607000,12.043607177734375,1.7297827005386353,-2.8321750164031982,9.228055953979492
1772458516532650800,12.053650634765624,1.7341374158859253,-2.829969882965088,9.227914810180664
1772458516542625000,12.063625,1.737790584564209,-2.8306937217712402,9.227005958557129
1772458516552957700,12.073957763671874,1.7429805994033813,-2.8261475563049316,9.227420806884766
1772458516562635000,12.083635009765626,1.747005581855774,-2.824740171432495,9.227090835571289
1772458516582631000,12.103630859375,1.7577812671661377,-2.817641019821167,9.227213859558105
1772458516593267000,12.114266845703124,1.7620728015899658,-2.812786102294922,9.227876663208008
1772458516602634800,12.123634765625,1.7637025117874146,-2.8099517822265625,9.228428840637207
1772458516614270700,12.135270751953126,1.7704291343688965,-2.800802707672119,9.229921340942383
1772458516625671200,12.146671142578125,1.7721096277236938,-2.7959063053131104,9.231085777282715
1772458516635699700,12.15669970703125,1.7751637697219849,-2.7858705520629883,9.23353099822998
1772458516645663700,12.166663818359375,1.7767490148544312,-2.7766902446746826,9.235991477966309
1772458516656021800,12.177021728515625,1.777811050415039,-2.7670130729675293,9.238692283630371
1772458516665677300,12.18667724609375,1.7785189151763916,-2.7590010166168213,9.240950584411621
1772458516695694800,12.21669482421875,1.7765122652053833,-2.734299898147583,9.248674392700195
1772458516705649400,12.2266494140625,1.7732839584350586,-2.7277181148529053,9.251237869262695
1772458516715665200,12.2366650390625,1.7712942361831665,-2.719775676727295,9.25395679473877
1772458516725627000,12.246626953125,1.767190933227539,-2.7114579677581787,9.257181167602539
1772458516735659500,12.256659423828125,1.7656471729278564,-2.7045834064483643,9.259485244750977
1772458516745606100,12.266606201171875,1.7643179893493652,-2.7013700008392334,9.260680198669434
1772458516756570600,12.277570556640624,1.7637848854064941,-2.6909704208374023,9.263809204101562
1772458516765626400,12.28662646484375,1.763459324836731,-2.6859965324401855,9.265313148498535
1772458516778162400,12.299162353515625,1.7617343664169312,-2.6806540489196777,9.267189025878906
1772458516795694000,12.316694091796874,1.7604146003723145,-2.676913022994995,9.26852035522461
1772458516805655600,12.326655517578125,1.7599843740463257,-2.6722731590270996,9.269942283630371
1772458516815704000,12.3367041015625,1.7587661743164062,-2.6696290969848633,9.270934104919434
1772458516825664300,12.346664306640625,1.7588837146759033,-2.6665942668914795,9.271785736083984
1772458516835694000,12.356694091796875,1.7593886852264404,-2.6646602153778076,9.272245407104492
1772458516845677000,12.366677001953125,1.75880765914917,-2.6605772972106934,9.273527145385742
1772458516856034300,12.377034423828125,1.7592893838882446,-2.6581106185913086,9.27414321899414
1772458516865684000,12.38668408203125,1.75877845287323,-2.654953718185425,9.275144577026367
1772458516875711500,12.39671142578125,1.7570921182632446,-2.6526784896850586,9.276115417480469
1772458516895725600,12.4167255859375,1.7509242296218872,-2.6490187644958496,9.278326988220215
1772458516905678300,12.42667822265625,1.7473961114883423,-2.6476781368255615,9.279374122619629
1772458516916305700,12.4373056640625,1.7437632083892822,-2.6472654342651367,9.28017520904541
1772458516925666800,12.446666748046875,1.7397516965866089,-2.647231340408325,9.280939102172852
1772458516937345300,12.45834521484375,1.7344752550125122,-2.6496450901031494,9.281237602233887
1772458516945690000,12.466690185546875,1.7308465242385864,-2.6510050296783447,9.281526565551758
1772458516956021500,12.477021484375,1.7254595756530762,-2.652057647705078,9.282228469848633
1772458516965670400,12.48667041015625,1.7199761867523193,-2.6550655364990234,9.282386779785156
1772458516975703300,12.496703369140626,1.7141753435134888,-2.6585776805877686,9.282454490661621
1772458516985649700,12.506649658203125,1.7074100971221924,-2.6622579097747803,9.282647132873535
1772458517005643500,12.5266435546875,1.6884938478469849,-2.6701085567474365,9.283851623535156
1772458517015701200,12.536701171875,1.675336241722107,-2.673309326171875,9.285313606262207
1772458517025650000,12.54664990234375,1.670291781425476,-2.6728482246398926,9.286355972290039
1772458517035805400,12.556805419921876,1.6478227376937866,-2.6800758838653564,9.288285255432129
1772458517045657000,12.566656982421875,1.6325948238372803,-2.6837306022644043,9.289920806884766
1772458517055994400,12.576994384765625,1.6131203174591064,-2.6896135807037354,9.291621208190918
1772458517065656000,12.586656005859375,1.591828465461731,-2.6953043937683105,9.2936429977417
1772458517076320000,12.597320068359375,1.5655121803283691,-2.7008895874023438,9.296490669250488
1772458517085661700,12.60666162109375,1.5428472757339478,-2.706814765930176,9.29855728149414
1772458517098177300,12.61917724609375,1.5352619886398315,-2.709362745285034,9.299072265625
1772458517115731000,12.63673095703125,1.4903525114059448,-2.7208266258239746,9.303028106689453
1772458517125681200,12.64668115234375,1.4512118101119995,-2.728719472885132,9.306904792785645
1772458517135724300,12.656724365234375,1.4274264574050903,-2.7337565422058105,9.309104919433594
1772458517145699800,12.666699951171875,1.4044933319091797,-2.7396340370178223,9.310863494873047
1772458517156064000,12.67706396484375,1.3816578388214111,-2.745328426361084,9.312603950500488
1772458517165702400,12.686702392578125,1.36149001121521,-2.748904228210449,9.314519882202148
1772458517175727600,12.6967275390625,1.3440344333648682,-2.7516028881073,9.31625747680664
1772458517185706500,12.70670654296875,1.3308336734771729,-2.7530272006988525,9.317732810974121
1772458517195758000,12.716758056640625,1.3228824138641357,-2.7557373046875,9.318062782287598
1772458517215722200,12.73672216796875,1.2973018884658813,-2.7534213066101074,9.322341918945312
1772458517225689600,12.746689697265625,1.28142511844635,-2.7471418380737305,9.326390266418457
1772458517236350700,12.757350830078124,1.2664204835891724,-2.732476234436035,9.332747459411621
1772458517245688600,12.7666884765625,1.2579162120819092,-2.714346170425415,9.339183807373047
1772458517257601500,12.7786015625,1.2550252676010132,-2.6861844062805176,9.347711563110352
1772458517265697800,12.78669775390625,1.2579705715179443,-2.68209171295166,9.348491668701172
1772458517275749400,12.796749267578125,1.2664450407028198,-2.6392440795898438,9.359536170959473
1772458517285708000,12.8067080078125,1.2761989831924438,-2.612196922302246,9.365796089172363
1772458517295723300,12.81672314453125,1.2864327430725098,-2.585563898086548,9.371784210205078
1772458517315749400,12.836749267578124,1.3043243885040283,-2.5388832092285156,9.38206958770752
1772458517325697500,12.846697509765624,1.3125561475753784,-2.5214102268218994,9.38563346862793
1772458517335725000,12.85672509765625,1.3208389282226562,-2.508958339691162,9.38780689239502
1772458517345717800,12.8667177734375,1.3299328088760376,-2.5014147758483887,9.388535499572754
1772458517356090000,12.877090087890625,1.3390140533447266,-2.498852491378784,9.38792610168457
1772458517365730800,12.886730712890625,1.345907211303711,-2.501117467880249,9.386340141296387
1772458517375893200,12.896893310546876,1.346073865890503,-2.503843307495117,9.385587692260742
1772458517385744600,12.90674462890625,1.3609989881515503,-2.5116190910339355,9.381356239318848
1772458517396414700,12.917414794921875,1.3717916011810303,-2.518664836883545,9.377896308898926
1772458517405757200,12.926757080078126,1.3841946125030518,-2.52482271194458,9.374415397644043
1772458517418277000,12.939277099609376,1.4024609327316284,-2.5250473022460938,9.371639251708984
1772458517425800700,12.94680078125,1.4137351512908936,-2.5234134197235107,9.37038516998291
1772458517435862300,12.9568623046875,1.4278233051300049,-2.519340753555298,9.369345664978027
1772458517445825500,12.966825439453125,1.4417004585266113,-2.514010190963745,9.36865234375
1772458517456154000,12.977154052734376,1.448227882385254,-2.5127270221710205,9.367989540100098
1772458517465802800,12.986802734375,1.477462649345398,-2.5028622150421143,9.366066932678223
1772458517475861200,12.996861328125,1.486575961112976,-2.502455234527588,9.364731788635254
1772458517485811000,13.00681103515625,1.507717490196228,-2.4984233379364014,9.362428665161133
1772458517495830300,13.016830322265625,1.5277619361877441,-2.4958951473236084,9.359853744506836
1772458517525814800,13.046814697265624,1.6158751249313354,-2.51189923286438,9.340755462646484
1772458517535840300,13.05684033203125,1.6280711889266968,-2.5162606239318848,9.33746337890625
1772458517545819600,13.066819580078125,1.6554116010665894,-2.5315144062042236,9.32852840423584
1772458517556809700,13.077809814453126,1.699643611907959,-2.5660338401794434,9.311126708984375
1772458517565855200,13.086855224609375,1.7251638174057007,-2.588069438934326,9.30032730102539
1772458517577524200,13.098524169921875,1.7375825643539429,-2.597489356994629,9.295389175415039
1772458517595947300,13.116947265625,1.7950831651687622,-2.6593213081359863,9.266934394836426
1772458517605905400,13.126905517578125,1.8415976762771606,-2.7158775329589844,9.241371154785156
1772458517615938000,13.13693798828125,1.8534482717514038,-2.728679656982422,9.235227584838867
1772458517635997200,13.1569970703125,1.9093600511550903,-2.7981927394866943,9.202980041503906
1772458517645952000,13.166951904296875,1.9359575510025024,-2.83284330368042,9.186809539794922
1772458517656292600,13.177292724609375,1.9617174863815308,-2.868317127227783,9.17032241821289
1772458517665979000,13.186978759765625,2.0002245903015137,-2.9270617961883545,9.143401145935059
1772458517676027400,13.19702734375,2.020551919937134,-2.960922956466675,9.12801742553711
1772458517685998600,13.20699853515625,2.0374643802642822,-2.992462396621704,9.113961219787598
1772458517696014600,13.2170146484375,2.0504512786865234,-3.021697759628296,9.101394653320312
1772458517706013000,13.227012939453125,2.053238868713379,-3.0288007259368896,9.098404884338379
1772458517726030300,13.2470302734375,2.077016830444336,-3.0892515182495117,9.072649002075195
1772458517738546400,13.25954638671875,2.0863444805145264,-3.1079485416412354,9.064118385314941
1772458517746059000,13.26705908203125,2.0863468647003174,-3.1061651706695557,9.064727783203125
1772458517756413400,13.277413330078126,2.0927796363830566,-3.1159162521362305,9.059896469116211
1772458517766065200,13.287065185546876,2.0920419692993164,-3.11271595954895,9.061168670654297
1772458517776072000,13.297072021484375,2.0897231101989746,-3.1058454513549805,9.064059257507324
1772458517786059800,13.307059814453124,2.0801894664764404,-3.0825908184051514,9.07418441772461
1772458517796092700,13.3170927734375,2.0708916187286377,-3.055347442626953,9.085518836975098
1772458517806052000,13.327052001953126,2.0616602897644043,-3.020404577255249,9.099291801452637
1772458517816084200,13.337084228515625,2.0534820556640625,-2.978557586669922,9.114922523498535
1772458517836104700,13.357104736328125,2.045699119567871,-2.879225730895996,9.148529052734375
1772458517846068200,13.367068115234375,2.0437591075897217,-2.822065830230713,9.166755676269531
1772458517856388600,13.377388671875,2.0455572605133057,-2.792590856552124,9.175376892089844
1772458517866076400,13.387076416015624,2.0411574840545654,-2.694230318069458,9.20571517944336
1772458517876727300,13.397727294921875,2.037616491317749,-2.6255156993865967,9.22633171081543
1772458517886080000,13.407080078125,2.0345873832702637,-2.5656604766845703,9.24382209777832
1772458517897686300,13.418686279296875,2.0281553268432617,-2.49520206451416,9.264500617980957
1772458517906407400,13.427407470703125,2.0249388217926025,-2.4467577934265137,9.27811336517334
1772458517916141300,13.437141357421876,2.0207600593566895,-2.3962972164154053,9.292184829711914
1772458517926091000,13.447091064453126,2.018303155899048,-2.34860897064209,9.304884910583496
1772458517946089500,13.46708935546875,2.0231986045837402,-2.289109945297241,9.318638801574707
1772458517956461300,13.47746142578125,2.019566535949707,-2.2154078483581543,9.337220191955566
1772458517966100500,13.4871005859375,2.0208535194396973,-2.1752946376800537,9.3463716506958
1772458517976115200,13.497115234375,2.020735502243042,-2.135258197784424,9.355623245239258
1772458517986093800,13.50709375,2.020737886428833,-2.098109245300293,9.36402416229248
1772458517996119300,13.517119384765625,2.021498203277588,-2.065714120864868,9.371061325073242
1772458518006081800,13.527081787109376,2.024071216583252,-2.0570621490478516,9.372407913208008
1772458518016082700,13.537082763671876,2.0250580310821533,-2.0299108028411865,9.378111839294434
1772458518026062000,13.54706201171875,2.0274744033813477,-1.9948110580444336,9.385120391845703
1772458518046065000,13.56706494140625,2.0334043502807617,-1.9808342456817627,9.386797904968262
1772458518058885000,13.579885009765626,2.0401504039764404,-1.9731533527374268,9.38694953918457
1772458518066105000,13.58710498046875,2.043139696121216,-1.9807742834091187,9.384696960449219
1772458518076139500,13.597139404296875,2.0444834232330322,-1.991086721420288,9.382220268249512
1772458518086109000,13.60710888671875,2.0473153591156006,-2.0073416233062744,9.378137588500977
1772458518096119600,13.61711962890625,2.048654556274414,-2.0269246101379395,9.373632431030273
1772458518106135800,13.6271357421875,2.049633026123047,-2.0479443073272705,9.368847846984863
1772458518116166100,13.637166259765625,2.049877882003784,-2.068659782409668,9.364243507385254
1772458518126133200,13.64713330078125,2.0473411083221436,-2.083259105682373,9.361560821533203
1772458518136139800,13.657139892578124,2.0512521266937256,-2.1148595809936523,9.353616714477539
1772458518156481500,13.6774814453125,2.053407907485962,-2.152702569961548,9.344505310058594
1772458518166135000,13.687135009765624,2.059229850769043,-2.1836090087890625,9.33604907989502
1772458518176142000,13.69714208984375,2.0615005493164062,-2.2053046226501465,9.330446243286133
1772458518186135800,13.7071357421875,2.0642080307006836,-2.227383613586426,9.324601173400879
1772458518196790300,13.717790283203126,2.068296194076538,-2.2504022121429443,9.318166732788086
1772458518206135300,13.72713525390625,2.070460796356201,-2.2706785202026367,9.312766075134277
1772458518217775400,13.738775390625,2.0743613243103027,-2.2958860397338867,9.30571460723877
1772458518226148900,13.74714892578125,2.0755882263183594,-2.314044952392578,9.300941467285156
1772458518236166100,13.757166259765626,2.0783066749572754,-2.335681200027466,9.29492473602295
1772458518246131200,13.767131103515625,2.0785956382751465,-2.344235897064209,9.292706489562988
1772458518266124800,13.787124755859375,2.078784227371216,-2.385967254638672,9.282037734985352
1772458518276159700,13.79715966796875,2.079282283782959,-2.4238967895507812,9.272092819213867
1772458518286118400,13.807118408203126,2.0773825645446777,-2.4463231563568115,9.266627311706543
1772458518296134100,13.817134033203125,2.0759060382843018,-2.469043016433716,9.260931968688965
1772458518306112800,13.82711279296875,2.07257080078125,-2.4908599853515625,9.255834579467773
1772458518316155100,13.837155029296875,2.068950891494751,-2.513005495071411,9.250656127929688
1772458518326117400,13.847117431640624,2.0647499561309814,-2.5346155166625977,9.245698928833008
1772458518336125400,13.85712548828125,2.060277223587036,-2.554872989654541,9.241119384765625
1772458518346128400,13.86712841796875,2.0560786724090576,-2.5722692012786865,9.237228393554688
1772458518357090800,13.8780908203125,2.054253101348877,-2.5880823135375977,9.23321533203125
1772458518378655000,13.899655029296875,2.054385185241699,-2.6104512214660645,9.226885795593262
1772458518386161000,13.907160888671875,2.0565099716186523,-2.6143240928649902,9.225317001342773
1772458518396198100,13.9171982421875,2.0593981742858887,-2.6139230728149414,9.224786758422852
1772458518406161400,13.927161376953125,2.0628981590270996,-2.6270480155944824,9.220273971557617
1772458518416166000,13.937165771484375,2.0688767433166504,-2.6301825046539307,9.218040466308594
1772458518426145800,13.947145751953125,2.0776755809783936,-2.630286931991577,9.216032028198242
1772458518436192800,13.95719287109375,2.0882694721221924,-2.6309380531311035,9.213451385498047
1772458518446184700,13.967184814453125,2.0980210304260254,-2.6351048946380615,9.210046768188477
1772458518456502000,13.977501953125,2.106186628341675,-2.642320156097412,9.206113815307617
1772458518466172000,13.987171875,2.112044095993042,-2.650693416595459,9.202363014221191
1772458518496175900,14.01717578125,2.12743878364563,-2.6780850887298584,9.190878868103027
1772458518506156300,14.02715625,2.131119966506958,-2.6842052936553955,9.188241004943848
1772458518516798200,14.037798095703126,2.133455276489258,-2.6871936321258545,9.186823844909668
1772458518526144800,14.047144775390626,2.135080337524414,-2.685560703277588,9.186925888061523
1772458518537763800,14.058763916015625,2.136650323867798,-2.678492307662964,9.18862247467041
1772458518546160600,14.06716064453125,2.1384832859039307,-2.6675820350646973,9.191370964050293
1772458518556536000,14.0775361328125,2.1398346424102783,-2.650642156600952,9.195954322814941
1772458518566178300,14.08717822265625,2.1410720348358154,-2.630323648452759,9.20150089263916
1772458518596203500,14.11720361328125,2.1498913764953613,-2.5544559955596924,9.22079849243164
1772458518606178300,14.12717822265625,2.1511738300323486,-2.5111591815948486,9.232385635375977
1772458518616168000,14.13716796875,2.1542484760284424,-2.484821081161499,9.238791465759277
1772458518626169300,14.14716943359375,2.1566970348358154,-2.4620609283447266,9.24431324005127
1772458518636207400,14.157207275390626,2.1598119735717773,-2.441760778427124,9.248967170715332
1772458518646167800,14.167167724609374,2.1637895107269287,-2.4244608879089355,9.252589225769043
1772458518656481300,14.177481201171876,2.167675018310547,-2.4091923236846924,9.255666732788086
1772458518666154200,14.187154296875,2.1716597080230713,-2.3973491191864014,9.257806777954102
1772458518686172000,14.207171875,2.1779372692108154,-2.386547565460205,9.259124755859375
1772458518698691000,14.219691162109376,2.1851017475128174,-2.383640766143799,9.258183479309082
1772458518706201000,14.227201171875,2.18647837638855,-2.384747266769409,9.257575035095215
1772458518716249900,14.237249755859375,2.1859428882598877,-2.3892335891723633,9.25654411315918
1772458518726297000,14.247297119140624,2.182495355606079,-2.3938095569610596,9.256174087524414
1772458518736230000,14.25722998046875,2.1804606914520264,-2.3994274139404297,9.255200386047363
1772458518746214100,14.267214111328125,2.1773855686187744,-2.404650926589966,9.254569053649902
1772458518756581600,14.27758154296875,2.1746044158935547,-2.4067890644073486,9.254667282104492
1772458518766216400,14.287216552734375,2.1728246212005615,-2.406914234161377,9.255051612854004
1772458518776264700,14.2972646484375,2.169290065765381,-2.4068143367767334,9.25590705871582
1772458518796290600,14.31729052734375,2.1666507720947266,-2.403815507888794,9.257306098937988
1772458518806240300,14.327240234375,2.1630804538726807,-2.402726650238037,9.2584228515625
1772458518816268000,14.33726806640625,2.1612942218780518,-2.4016473293304443,9.259119987487793
1772458518826246400,14.347246337890626,2.1549229621887207,-2.4026691913604736,9.260339736938477
1772458518836921600,14.357921630859375,2.1496896743774414,-2.4015026092529297,9.261857032775879
1772458518846258200,14.367258056640624,2.14439058303833,-2.4021949768066406,9.262907028198242
1772458518858222600,14.37922265625,2.1405134201049805,-2.4025135040283203,9.26371955871582
1772458518866276400,14.3872763671875,2.1384143829345703,-2.403122663497925,9.264047622680664
1772458518876326400,14.397326416015625,2.135904312133789,-2.4033424854278564,9.264570236206055
1772458518886272000,14.40727197265625,2.131680727005005,-2.403704881668091,9.265447616577148
1772458518906254300,14.42725439453125,2.1205976009368896,-2.402848243713379,9.268213272094727
1772458518916301000,14.437301025390624,2.1152431964874268,-2.4019298553466797,9.269672393798828
1772458518926252500,14.44725244140625,2.110541343688965,-2.400243043899536,9.2711820602417
1772458518936275500,14.457275390625,2.1071863174438477,-2.3980820178985596,9.272505760192871
1772458518946267100,14.46726708984375,2.105846643447876,-2.394763469696045,9.27366828918457
1772458518956622800,14.477622802734375,2.1052794456481934,-2.391158103942871,9.274725914001465
1772458518966250200,14.487250244140625,2.103288173675537,-2.3868508338928223,9.276287078857422
1772458518976265000,14.497264892578125,2.1025896072387695,-2.382293701171875,9.277618408203125
1772458518986229000,14.50722900390625,2.1014578342437744,-2.378237724304199,9.278913497924805
1772458519006202400,14.527202392578126,2.0993905067443848,-2.3702409267425537,9.281428337097168
1772458519018732500,14.539732666015626,2.101520538330078,-2.3702311515808105,9.280949592590332
1772458519026220800,14.547220703125,2.099452495574951,-2.3682165145874023,9.281929969787598
1772458519036256000,14.557256103515625,2.098583936691284,-2.369039297103882,9.281919479370117
1772458519046194200,14.567194091796875,2.0969371795654297,-2.369351863861084,9.282210350036621
1772458519056518700,14.5775185546875,2.096730947494507,-2.3699495792388916,9.282103538513184
1772458519066194700,14.587194580078124,2.098003387451172,-2.3721072673797607,9.281265258789062
1772458519076267800,14.597267822265625,2.09834361076355,-2.3762564659118652,9.280128479003906
1772458519086201600,14.60720166015625,2.0978386402130127,-2.380434274673462,9.279170989990234
1772458519116323800,14.63732373046875,2.0934078693389893,-2.396817922592163,9.27595329284668
1772458519126260000,14.647260009765626,2.093383312225342,-2.403306245803833,9.274279594421387
1772458519136291000,14.657291015625,2.094001293182373,-2.408919334411621,9.272684097290039
1772458519146254000,14.667254150390624,2.094679832458496,-2.4124772548675537,9.2716064453125
1772458519157212200,14.678212158203126,2.0967841148376465,-2.4144039154052734,9.270627975463867
1772458519166273300,14.687273193359376,2.1011557579040527,-2.413330078125,9.269917488098145
1772458519177903900,14.69890380859375,2.106010675430298,-2.411316156387329,9.269339561462402
1772458519186299100,14.707299072265625,2.112886428833008,-2.408792018890381,9.268431663513184
1772458519196383500,14.717383544921875,2.117436408996582,-2.405477523803711,9.268255233764648
1772458519236466200,14.757466064453125,2.139450788497925,-2.389871597290039,9.267236709594727
1772458519246411800,14.767411865234376,2.143270492553711,-2.3885579109191895,9.266691207885742
1772458519257161700,14.77816162109375,2.1489648818969727,-2.385199785232544,9.26623821258545
1772458519266398700,14.787398681640624,2.1535897254943848,-2.384127378463745,9.265439987182617
1772458519276435700,14.797435791015625,2.1589486598968506,-2.384054660797119,9.264212608337402
1772458519286375700,14.807375732421875,2.163496255874634,-2.383769989013672,9.263223648071289
1772458519296396000,14.81739599609375,2.168159008026123,-2.3850483894348145,9.261805534362793
1772458519306381000,14.827381103515625,2.171952486038208,-2.385468006134033,9.260807037353516
1772458519326371800,14.847371826171875,2.1765859127044678,-2.387714147567749,9.259140968322754
1772458519338889200,14.85988916015625,2.1796844005584717,-2.390377998352051,9.25772476196289
1772458519346389800,14.8673896484375,2.183600902557373,-2.3910975456237793,9.256616592407227
1772458519356745200,14.8777451171875,2.1874265670776367,-2.3926076889038086,9.25532341003418
1772458519366374400,14.88737451171875,2.191179037094116,-2.3935489654541016,9.254191398620605
1772458519376391200,14.89739111328125,2.1949493885040283,-2.3954176902770996,9.252815246582031
1772458519386370000,14.9073701171875,2.1987569332122803,-2.395792007446289,9.251812934875488
1772458519396392700,14.917392822265626,2.2028632164001465,-2.396608829498291,9.250624656677246
1772458519406346200,14.92734619140625,2.206111431121826,-2.3987157344818115,9.249303817749023
1772458519416365000,14.937364990234375,2.2071430683135986,-2.39811372756958,9.249214172363281
1772458519426327600,14.94732763671875,2.2100369930267334,-2.403104305267334,9.247228622436523
1772458519436360200,14.957360107421875,2.2101078033447266,-2.4077794551849365,9.245996475219727
1772458519446327600,14.96732763671875,2.208348274230957,-2.4100685119628906,9.245819091796875
1772458519456688000,14.977688232421874,2.2054443359375,-2.4185335636138916,9.24429988861084
1772458519466339300,14.98733935546875,2.2041263580322266,-2.4234044551849365,9.243340492248535
1772458519476985900,14.99798583984375,2.202153444290161,-2.4266703128814697,9.242952346801758
1772458519486319400,15.0073193359375,2.1995904445648193,-2.4280574321746826,9.24319839477539
1772458519497981000,15.01898095703125,2.1957173347473145,-2.428032875061035,9.24412727355957
1772458519506327600,15.02732763671875,2.19313383102417,-2.4253225326538086,9.245452880859375
1772458519516352800,15.037352783203126,2.1887218952178955,-2.420926094055176,9.247650146484375
1772458519536315400,15.0573154296875,2.180297613143921,-2.4132466316223145,9.251643180847168
1772458519546306800,15.067306884765625,2.178152561187744,-2.4099557399749756,9.253006935119629
1772458519556643300,15.077643310546875,2.1776130199432373,-2.407329559326172,9.25381851196289
1772458519566268200,15.08726806640625,2.177856206893921,-2.4054338932037354,9.254254341125488
1772458519576279600,15.097279541015626,2.18090558052063,-2.402163505554199,9.254384994506836
1772458519586248400,15.10724853515625,2.1832780838012695,-2.40230393409729,9.253789901733398
1772458519596300800,15.11730078125,2.1845459938049316,-2.403862953186035,9.25308609008789
1772458519606242800,15.127242919921875,2.187077045440674,-2.4071531295776367,9.251632690429688
1772458519616282000,15.1372822265625,2.1892974376678467,-2.4082396030426025,9.250823974609375
1772458519637942300,15.1589423828125,2.1920435428619385,-2.4256277084350586,9.245628356933594
1772458519647289900,15.168289794921876,2.194106340408325,-2.4301280975341797,9.243959426879883
1772458519660106200,15.181106201171875,2.1950931549072266,-2.4350788593292236,9.24242115020752
1772458519667325000,15.188324951171875,2.1950130462646484,-2.4354052543640137,9.242353439331055
1772458519677356500,15.1983564453125,2.1956098079681396,-2.437204122543335,9.241737365722656
1772458519687292000,15.2082919921875,2.1961400508880615,-2.4361815452575684,9.24188232421875
1772458519697352200,15.218352294921875,2.1965298652648926,-2.4337987899780273,9.242417335510254
1772458519707339000,15.228339111328125,2.1993343830108643,-2.4323713779449463,9.242125511169434
1772458519717392400,15.238392333984375,2.200374126434326,-2.4290921688079834,9.242741584777832
1772458519737441800,15.25844189453125,2.201237678527832,-2.421627998352051,9.24449348449707
1772458519747456500,15.26845654296875,2.2038164138793945,-2.41920804977417,9.244513511657715
1772458519757806000,15.27880615234375,2.2074902057647705,-2.4185376167297363,9.243812561035156
1772458519767432400,15.288432373046875,2.2107090950012207,-2.4191620349884033,9.242879867553711
1772458519777445000,15.298445068359374,2.213332414627075,-2.420804262161255,9.2418212890625
1772458519787428900,15.308428955078124,2.215355634689331,-2.4217529296875,9.241086959838867
1772458519798069000,15.319069091796875,2.218731164932251,-2.428398847579956,9.238534927368164
1772458519807411200,15.3284111328125,2.2192513942718506,-2.4318435192108154,9.237503051757812
1772458519819024600,15.340024658203125,2.218500852584839,-2.436340093612671,9.23649787902832
1772458519837500400,15.35850048828125,2.211566686630249,-2.4419174194335938,9.236688613891602
1772458519847446800,15.36844677734375,2.2078776359558105,-2.4444046020507812,9.236913681030273
1772458519857776600,15.378776611328124,2.2039170265197754,-2.4478890895843506,9.236936569213867
1772458519867461000,15.388461181640626,2.201753616333008,-2.4485890865325928,9.23726749420166
1772458519877504800,15.3985048828125,2.19612193107605,-2.4516429901123047,9.237794876098633
1772458519887460000,15.408460205078125,2.19260311126709,-2.4527978897094727,9.238326072692871
1772458519897480000,15.41847998046875,2.1898038387298584,-2.453577995300293,9.23878288269043
1772458519907453700,15.42845361328125,2.189655303955078,-2.4516196250915527,9.239337921142578
1772458519917493200,15.4384931640625,2.188934564590454,-2.4508159160614014,9.239720344543457
1772458519927435800,15.448435791015624,2.18715763092041,-2.4509334564208984,9.240113258361816
1772458519958404000,15.479404052734376,2.1913468837738037,-2.446828603744507,9.240206718444824
1772458519967434800,15.488434814453125,2.193459987640381,-2.445660352706909,9.240015983581543
1772458519979957500,15.50095751953125,2.1961545944213867,-2.446190357208252,9.23923397064209
1772458519987453700,15.50845361328125,2.1996541023254395,-2.4426658153533936,9.239335060119629
1772458519997495000,15.5184951171875,2.2010223865509033,-2.4426116943359375,9.239022254943848
1772458520007442000,15.52844189453125,2.202307939529419,-2.440627336502075,9.239241600036621
1772458520017457400,15.53845751953125,2.204073667526245,-2.4438674449920654,9.237961769104004
1772458520027432400,15.548432373046875,2.2048418521881104,-2.444950580596924,9.237492561340332
1772458520037467000,15.558466796875,2.20596981048584,-2.444596529006958,9.237316131591797
1772458520057730800,15.578730712890625,2.2051310539245605,-2.440591335296631,9.238576889038086
1772458520067393800,15.588393798828125,2.203871488571167,-2.436058521270752,9.24007511138916
1772458520077454000,15.5984541015625,2.2014269828796387,-2.430095672607422,9.242226600646973
1772458520087389000,15.608388916015626,2.1980350017547607,-2.422525644302368,9.245020866394043
1772458520097403000,15.61840283203125,2.1950368881225586,-2.412189483642578,9.248435020446777
1772458520107381000,15.628381103515625,2.1906840801239014,-2.4019813537597656,9.252123832702637
1772458520118035700,15.63903564453125,2.1903958320617676,-2.397869825363159,9.253257751464844
1772458520127381500,15.648381591796875,2.1860196590423584,-2.3770158290863037,9.259671211242676
1772458520139048000,15.6600478515625,2.186976909637451,-2.371790647506714,9.260785102844238
1772458520157757400,15.67875732421875,2.1951053142547607,-2.3378450870513916,9.26749038696289
1772458520167390000,15.688389892578124,2.2006278038024902,-2.3287556171417236,9.268468856811523
1772458520177405700,15.69840576171875,2.2063660621643066,-2.3239667415618896,9.26830768585205
1772458520187384300,15.70838427734375,2.2140800952911377,-2.32444429397583,9.26634693145752
