time,seconds_elapsed,z,y,x
1772739588334940200,0.619940185546875,-0.07182604819536209,-0.019153613597154617,0.272938996553421
1772739588344917000,0.6299169921875,0.009576806798577309,0.09576806426048279,0.33997663855552673
1772739588355616000,0.640615966796875,1.501164436340332,0.4620809257030487,-5.257667064666748
1772739588365615000,0.650614990234375,1.4891934394836426,0.545877993106842,-5.336675643920898
1772739588375991300,0.6609912109375,1.3263877630233765,0.49559974670410156,-4.884171485900879
1772739588385674500,0.670674560546875,1.2832920551300049,0.5123591423034668,-4.908113479614258
1772739588395753000,0.6807529296875,1.0295066833496094,0.33758243918418884,-4.431667327880859
1772739588405781200,0.69078125,1.0462661981582642,0.3423708379268646,-4.455609321594238
1772739588415848700,0.7008486328125,0.8020575642585754,0.3232172429561615,-3.993528366088867
1772739588425877000,0.710876953125,0.8427590131759644,0.33039984107017517,-4.079719543457031
1772739588436570000,0.721570068359375,0.7613561153411865,0.17717093229293823,-3.6774938106536865
1772739588458521900,0.74352197265625,0.6033388376235962,0.1867477297782898,-3.0190882682800293
1772739588466090500,0.751090576171875,0.6871358752250671,0.2537853717803955,-3.090914487838745
1772739588476489000,0.761489013671875,0.49320554733276367,0.13168109953403473,-2.652775526046753
1772739588487228200,0.772228271484375,0.4165911078453064,0.19393034279346466,-2.6815059185028076
1772739588497280000,0.782280029296875,0.10773907601833344,0.17477671802043915,-2.126051187515259
1772739588507299000,0.792299072265625,0.0454898327589035,0.19632454216480255,-2.1523873805999756
1772739588517390000,0.80239013671875,-0.028730420395731926,0.2082955539226532,-1.6089035272598267
1772739588527381200,0.81238134765625,0.026336219161748886,0.2849099934101105,-1.577778935432434
1772739588537439000,0.82243896484375,0.0933738648891449,0.17238251864910126,-1.0534487962722778
1772739588547445800,0.83244580078125,0.1149216815829277,0.05027823522686958,-1.0654197931289673
1772739588577863700,0.86286376953125,0.019153613597154617,-0.22505496442317963,-0.5195417404174805
1772739588587569400,0.8725693359375,0.11971008777618408,-0.090979665517807,-0.4668693244457245
1772739588598251500,0.88325146484375,0.05027823522686958,0,-0.2561795711517334
1772739588607629300,0.89262939453125,0.05506663769483566,0.17238251864910126,-0.2753331959247589
1772739588619282700,0.90428271484375,0.05506663769483566,0.16998831927776337,-0.20350714027881622
1772739588627702800,0.912702880859375,-0.040701430290937424,0.21308395266532898,-0.17956513166427612
1772739588637762800,0.9227626953125,-0.05027823522686958,0.16519992053508759,-0.14844051003456116
1772739588647750700,0.932750732421875,-0.07422025501728058,0.17477671802043915,-0.1843535304069519
1772739588678181400,0.963181396484375,-0.10055647045373917,-0.004788403399288654,-0.033518824726343155
1772739588687869700,0.97286962890625,-0.035913024097681046,0.06703764945268631,-0.07661445438861847
1772739588697909500,0.982909423828125,-0.004788403399288654,0.0694318488240242,-0.004788403399288654
1772739588707918800,0.9929189453125,0,0.11252748221158981,-0.009576806798577309
1772739588717977000,1.00297705078125,-0.0694318488240242,0.13168109953403473,-0.016759412363171577
1772739588727970800,1.012970703125,0,0.2059013396501541,-0.1412578970193863
1772739588738010400,1.02301025390625,-0.0454898327589035,0.22026655077934265,-0.13407529890537262
1772739588748015900,1.033015869140625,-0.05746084079146385,0.19632454216480255,-0.1173158809542656
1772739588758683600,1.04368359375,-0.0071826050989329815,0.21547815203666687,-0.11971008777618408
1772739588788422000,1.073421875,-0.05267243832349777,0.040701430290937424,-0.05746084079146385
1772739588798230300,1.083230224609375,-0.019153613597154617,0.031124621629714966,-0.16998831927776337
1772739588808249600,1.09324951171875,0.002394201699644327,0.08619125932455063,-0.17956513166427612
1772739588818287000,1.103287109375,-0.009576806798577309,0.07182604819536209,-0.035913024097681046
1772739588828292600,1.113292724609375,0.05027823522686958,0.047884032130241394,0
1772739588838343700,1.12334375,0.09816227108240128,0.06703764945268631,0.07661445438861847
1772739588848334600,1.13333447265625,-0.038307227194309235,0.016759412363171577,0.11252748221158981
1772739588858363100,1.143363037109375,-0.13168109953403473,0.08858546614646912,0.014365210197865963
1772739588868379400,1.15337939453125,-0.05746084079146385,0.028730420395731926,0.0454898327589035
1772739588898454500,1.18345458984375,-0.011971008032560349,0.08379705995321274,0.043095629662275314
1772739588908456400,1.19345654296875,-0.040701430290937424,0.043095629662275314,0.0454898327589035
1772739588919117000,1.204116943359375,-0.1149216815829277,-0.009576806798577309,0.040701430290937424
1772739588928500500,1.21350048828125,-0.19153612852096558,-0.13168109953403473,0.0071826050989329815
1772739588940168400,1.22516845703125,-0.11252748221158981,-0.09576806426048279,0.10055647045373917
1772739588948565800,1.233565673828125,-0.12689268589019775,-0.05746084079146385,-0.016759412363171577
1772739588958618400,1.243618408203125,-0.09576806426048279,-0.1173158809542656,0.06224924325942993
1772739588968606500,1.2536064453125,-0.07900865375995636,-0.10055647045373917,-0.002394201699644327
1772739588978955000,1.263955078125,-0.0071826050989329815,-0.05746084079146385,-0.043095629662275314
1772739588998702800,1.283702880859375,-0.047884032130241394,0.038307227194309235,0.019153613597154617
1772739589008696300,1.2936962890625,-0.1388636976480484,0.07900865375995636,0.009576806798577309
1772739589018739000,1.303739013671875,-0.05267243832349777,-0.016759412363171577,0.15083470940589905
1772739589028738300,1.31373828125,-0.14604631066322327,-0.07900865375995636,0.15083470940589905
1772739589038786000,1.3237861328125,-0.16759411990642548,-0.07182604819536209,0.06224924325942993
1772739589048773000,1.333773193359375,-0.05267243832349777,-0.16519992053508759,-0.038307227194309235
1772739589058810000,1.34381005859375,-0.011971008032560349,0.12928688526153564,-0.05985504388809204
1772739589068806100,1.35380615234375,0.019153613597154617,0.181959331035614,-0.0694318488240242
1772739589079775700,1.364775634765625,-0.043095629662275314,0.17956513166427612,-0.05985504388809204
1772739589109061400,1.394061279296875,-0.05985504388809204,0.14604631066322327,-0.17717093229293823
1772739589118973000,1.403972900390625,-0.05746084079146385,0.2298433631658554,-0.28969839215278625
1772739589128983000,1.413983154296875,-0.05746084079146385,0.2346317619085312,-0.2801215946674347
1772739589139036400,1.424036376953125,-0.004788403399288654,0.2849099934101105,-0.2322375625371933
1772739589149031000,1.434031005859375,0.090979665517807,0.33997663855552673,-0.2992752194404602
1772739589159090700,1.444090576171875,0.09576806426048279,0.2801215946674347,-0.2346317619085312
1772739589169109800,1.45410986328125,0.15801730751991272,0.20111294090747833,-0.2585737705230713
1772739589179478300,1.464478271484375,0.13407529890537262,0.08379705995321274,-0.22026655077934265
1772739589189159200,1.4741591796875,0.0694318488240242,0.08619125932455063,-0.16519992053508759
1772739589209254000,1.49425390625,0.15801730751991272,-0.0454898327589035,-0.0694318488240242
1772739589219313400,1.5043134765625,0.1843535304069519,-0.0071826050989329815,-0.031124621629714966
1772739589229309700,1.514309814453125,0.14844051003456116,0.0454898327589035,-0.08858546614646912
1772739589239955500,1.52495556640625,-0.002394201699644327,-0.004788403399288654,-0.05506663769483566
1772739589249364200,1.5343642578125,-0.05506663769483566,0.06464344263076782,-0.016759412363171577
1772739589261031200,1.54603125,-0.031124621629714966,0.014365210197865963,-0.016759412363171577
1772739589269437200,1.554437255859375,-0.043095629662275314,-0.019153613597154617,0.0071826050989329815
1772739589279781000,1.564781005859375,-0.07182604819536209,0.05267243832349777,0.038307227194309235
1772739589289482500,1.574482421875,-0.12210428714752197,-0.004788403399288654,0.011971008032560349
1772739589319578400,1.604578369140625,-0.10295066982507706,-0.06703764945268631,0.20350714027881622
1772739589329590800,1.6145908203125,0.009576806798577309,-0.10534487664699554,0.13407529890537262
1772739589339647000,1.62464697265625,-0.07182604819536209,-0.22744916379451752,0.13407529890537262
1772739589349632000,1.634632080078125,-0.090979665517807,-0.1628057211637497,0.10534487664699554
1772739589359664000,1.6446640625,-0.05985504388809204,-0.016759412363171577,0.1412578970193863
1772739589369664500,1.65466455078125,-0.026336219161748886,-0.002394201699644327,0.08379705995321274
1772739589380032800,1.66503271484375,-0.0071826050989329815,0.047884032130241394,0.07900865375995636
1772739589389703700,1.67470361328125,-0.016759412363171577,0.009576806798577309,-0.004788403399288654
1772739589422306800,1.707306884765625,-0.05506663769483566,0.10773907601833344,-0.002394201699644327
1772739589429837300,1.71483740234375,-0.08858546614646912,0.08140286058187485,-0.004788403399288654
1772739589439874800,1.724874755859375,-0.021547814831137657,-0.05746084079146385,-0.011971008032560349
1772739589449878000,1.7348779296875,0.09816227108240128,-0.05267243832349777,-0.08619125932455063
1772739589459935200,1.744935302734375,0.08858546614646912,-0.014365210197865963,-0.031124621629714966
1772739589469926000,1.75492578125,0.047884032130241394,-0.09816227108240128,-0.047884032130241394
1772739589480275500,1.765275390625,0.05506663769483566,-0.05985504388809204,0.021547814831137657
1772739589489999400,1.774999267578125,-0.026336219161748886,0,-0.06703764945268631
1772739589500054000,1.785053955078125,-0.12449848651885986,0.13407529890537262,-0.07182604819536209
1772739589520079000,1.8050791015625,-0.021547814831137657,0.22026655077934265,-0.10295066982507706
1772739589530083800,1.815083740234375,-0.0454898327589035,0.2585737705230713,-0.08858546614646912
1772739589540143400,1.825143310546875,-0.004788403399288654,0.2322375625371933,-0.05985504388809204
1772739589550140700,1.835140625,-0.0071826050989329815,0.16759411990642548,0.0071826050989329815
1772739589560781800,1.84578173828125,0.047884032130241394,0.1412578970193863,-0.033518824726343155
1772739589570182000,1.855181884765625,-0.0454898327589035,0.1388636976480484,-0.0071826050989329815
1772739589582191000,1.867191162109375,0.05746084079146385,0.002394201699644327,-0.002394201699644327
1772739589590253300,1.87525341796875,-0.05985504388809204,-0.15562310814857483,-0.0071826050989329815
1772739589600283000,1.885282958984375,-0.05746084079146385,-0.05027823522686958,-0.0071826050989329815
1772739589630351000,1.91535107421875,0.014365210197865963,0.1364694982767105,0.040701430290937424
1772739589640398800,1.92539892578125,0.035913024097681046,0.1628057211637497,-0.014365210197865963
1772739589650418200,1.935418212890625,0.043095629662275314,0.040701430290937424,0.07661445438861847
1772739589660473600,1.9454736328125,0.07661445438861847,0.11971008777618408,-0.05506663769483566
1772739589670470400,1.955470458984375,0.014365210197865963,0.10534487664699554,-0.014365210197865963
1772739589680820000,1.965820068359375,0.009576806798577309,0.11013327538967133,0.014365210197865963
1772739589690537500,1.975537353515625,-0.0454898327589035,0.05985504388809204,0.004788403399288654
1772739589700593200,1.98559326171875,0.033518824726343155,-0.06703764945268631,-0.0454898327589035
1772739589710586400,1.99558642578125,-0.014365210197865963,-0.14365209639072418,0.021547814831137657
1772739589730653400,2.0156533203125,-0.06224924325942993,-0.06224924325942993,-0.05027823522686958
1772739589743199500,2.028199462890625,-0.019153613597154617,0.05267243832349777,0.021547814831137657
1772739589750736600,2.035736572265625,-0.019153613597154617,-0.038307227194309235,0.05746084079146385
1772739589760776700,2.045776611328125,0.019153613597154617,-0.016759412363171577,0.047884032130241394
1772739589770793500,2.05579345703125,-0.0454898327589035,0,0.0933738648891449
1772739589781169000,2.0661689453125,0.014365210197865963,-0.028730420395731926,-0.033518824726343155
1772739589790844000,2.075843994140625,-0.028730420395731926,0.035913024097681046,0.05267243832349777
1772739589800875800,2.085875732421875,-0.038307227194309235,-0.15801730751991272,0.10295066982507706
1772739589810886400,2.095886474609375,-0.090979665517807,-0.07661445438861847,0.05267243832349777
1772739589840959200,2.125959228515625,-0.05267243832349777,-0.08619125932455063,0.11013327538967133
1772739589850967800,2.1359677734375,-0.21547815203666687,-0.1412578970193863,0.1412578970193863
1772739589861023200,2.146023193359375,-0.1867477297782898,-0.040701430290937424,0.090979665517807
1772739589871006200,2.156006103515625,-0.15322890877723694,0.031124621629714966,-0.05027823522686958
1772739589881960400,2.16696044921875,-0.047884032130241394,0,0.031124621629714966
1772739589891051800,2.1760517578125,-0.0694318488240242,0.026336219161748886,0.05746084079146385
1772739589902697700,2.18769775390625,-0.047884032130241394,-0.038307227194309235,0.002394201699644327
1772739589911098600,2.1960986328125,-0.004788403399288654,-0.15562310814857483,-0.090979665517807
1772739589941181400,2.226181396484375,0.06224924325942993,-0.0694318488240242,-0.05506663769483566
1772739589951165000,2.2361650390625,0.07422025501728058,-0.05027823522686958,-0.08140286058187485
1772739589961197000,2.246197021484375,0.11971008777618408,0.011971008032560349,-0.090979665517807
1772739589971207700,2.256207763671875,0.11971008777618408,-0.004788403399288654,-0.06464344263076782
1772739589981588500,2.26658837890625,0.17717093229293823,0.038307227194309235,-0.05506663769483566
1772739589991262200,2.27626220703125,0.11252748221158981,0.05506663769483566,-0.0933738648891449
1772739590001299500,2.286299560546875,0.05985504388809204,0.1173158809542656,-0.05267243832349777
1772739590011332900,2.296332763671875,0.06703764945268631,0.07661445438861847,-0.0933738648891449
1772739590021395200,2.306395263671875,0.004788403399288654,0.07661445438861847,0.023942016065120697
1772739590042044200,2.327044189453125,0.0071826050989329815,-0.014365210197865963,0.043095629662275314
1772739590051448800,2.33644873046875,0.035913024097681046,-0.12449848651885986,-0.05027823522686958
1772739590063998000,2.348998046875,0.038307227194309235,-0.13168109953403473,-0.040701430290937424
1772739590071532300,2.3565322265625,0.043095629662275314,-0.019153613597154617,-0.07661445438861847
1772739590081888000,2.366887939453125,0.0454898327589035,0.011971008032560349,-0.0071826050989329815
1772739590091595300,2.37659521484375,0.019153613597154617,0.1173158809542656,-0.026336219161748886
1772739590101664000,2.3866640625,0.10055647045373917,0.07422025501728058,-0.09816227108240128
1772739590111651800,2.39665185546875,0.07900865375995636,0.06703764945268631,-0.026336219161748886
1772739590121987300,2.4069873046875,0.031124621629714966,-0.016759412363171577,-0.09576806426048279
1772739590141762600,2.426762451171875,0,-0.1173158809542656,0
1772739590151753700,2.436753662109375,-0.10055647045373917,-0.12928688526153564,-0.07182604819536209
1772739590161796000,2.446796142578125,-0.05746084079146385,-0.07182604819536209,-0.06703764945268631
1772739590171836000,2.4568359375,-0.009576806798577309,0.023942016065120697,-0.06464344263076782
1772739590182206500,2.46720654296875,0.05267243832349777,0.004788403399288654,-0.09576806426048279
1772739590191883500,2.476883544921875,0.08858546614646912,-0.019153613597154617,-0.07900865375995636
1772739590202525200,2.487525146484375,0.040701430290937424,0.014365210197865963,-0.011971008032560349
1772739590211929900,2.496929931640625,0.038307227194309235,0.004788403399288654,0
1772739590223633700,2.508633544921875,0.10055647045373917,-0.031124621629714966,-0.0454898327589035
1772739590252030200,2.5370302734375,-0.06703764945268631,-0.0933738648891449,0.009576806798577309
1772739590262083000,2.5470830078125,0.023942016065120697,-0.038307227194309235,0.05506663769483566
1772739590272072000,2.557072021484375,-0.021547814831137657,0.002394201699644327,-0.028730420395731926
1772739590282412800,2.567412841796875,0.023942016065120697,0.043095629662275314,0.028730420395731926
1772739590292114400,2.577114501953125,-0.05746084079146385,-0.011971008032560349,-0.023942016065120697
1772739590302166000,2.587166015625,-0.06464344263076782,-0.035913024097681046,0.011971008032560349
1772739590312153300,2.5971533203125,-0.0694318488240242,-0.08140286058187485,0.06703764945268631
1772739590322185500,2.607185546875,-0.035913024097681046,0.05746084079146385,0.035913024097681046
1772739590352247800,2.637247802734375,0.07422025501728058,0.028730420395731926,-0.07182604819536209
1772739590362897200,2.647897216796875,0.13168109953403473,0.0071826050989329815,-0.035913024097681046
1772739590372336400,2.65733642578125,0.12449848651885986,-0.021547814831137657,0.0071826050989329815
1772739590385220400,2.670220458984375,0.028730420395731926,0,-0.05746084079146385
1772739590392682500,2.6776826171875,-0.004788403399288654,-0.047884032130241394,-0.1364694982767105
1772739590402486300,2.687486328125,0.014365210197865963,-0.028730420395731926,-0.1173158809542656
1772739590412541400,2.69754150390625,-0.043095629662275314,-0.043095629662275314,-0.12689268589019775
1772739590422610400,2.7076103515625,0,0.047884032130241394,-0.05985504388809204
1772739590432610800,2.71761083984375,-0.043095629662275314,0.040701430290937424,-0.031124621629714966
1772739590462757000,2.747757080078125,0.004788403399288654,0,-0.002394201699644327
1772739590472765400,2.757765380859375,-0.043095629662275314,0.011971008032560349,0.06224924325942993
1772739590483130000,2.768130126953125,-0.028730420395731926,0.004788403399288654,0.05746084079146385
1772739590492882000,2.7778818359375,0.019153613597154617,0.014365210197865963,0.10534487664699554
1772739590502946000,2.787946044921875,-0.0694318488240242,-0.090979665517807,0.06464344263076782
1772739590512951300,2.797951416015625,-0.07422025501728058,-0.021547814831137657,0.08858546614646912
1772739590523614200,2.8086142578125,-0.0933738648891449,-0.06464344263076782,0.0694318488240242
1772739590533046000,2.8180458984375,-0.05027823522686958,-0.05746084079146385,0.10055647045373917
1772739590563191300,2.84819140625,0.10055647045373917,-0.040701430290937424,0.08619125932455063
1772739590573211100,2.858211181640625,0.2106897532939911,-0.12928688526153564,0.14365209639072418
1772739590583593700,2.86859375,0.17956513166427612,-0.13407529890537262,0.2825157940387726
1772739590593284400,2.878284423828125,0.1412578970193863,-0.26575639843940735,0.19632454216480255
1772739590603336400,2.88833642578125,0.1604115068912506,-0.19393034279346466,0.1843535304069519
1772739590613365500,2.898365478515625,0.2944868206977844,-0.12449848651885986,0.2513911724090576
1772739590623432000,2.908431884765625,0.3423708379268646,-0.16519992053508759,0.1388636976480484
1772739590633433900,2.918433837890625,0.2968810200691223,-0.040701430290937424,0.3423708379268646
1772739590643482400,2.928482421875,0.3495534360408783,0,0.2777273952960968
1772739590663570000,2.94856982421875,0.011971008032560349,0.18914192914962769,0.17477671802043915
1772739590673572900,2.95857275390625,-0.1173158809542656,0.19632454216480255,0.31603461503982544
1772739590684541400,2.96954150390625,-0.272938996553421,0.4118026793003082,0.15562310814857483
1772739590693670100,2.978670166015625,-0.3208230137825012,0.29209262132644653,-0.028730420395731926
1772739590706226200,2.99122607421875,-0.47644615173339844,0.181959331035614,-0.15801730751991272
1772739590713769000,2.99876904296875,-0.5003881454467773,0.19632454216480255,-0.33279404044151306
1772739590723815200,3.008815185546875,-0.37828385829925537,0.19871874153614044,-0.363918662071228
1772739590733839000,3.018839111328125,-0.43335050344467163,0.21787235140800476,-0.3902548849582672
1772739590743906300,3.02890625,-0.2513911724090576,0.1843535304069519,-0.43095630407333374
1772739590773992700,3.05899267578125,0.035913024097681046,0.2537853717803955,-0.31842881441116333
1772739590784367900,3.069367919921875,0.06464344263076782,0.028730420395731926,-0.40701428055763245
1772739590794057200,3.07905712890625,0.06464344263076782,-0.05267243832349777,-0.6153098344802856
1772739590804128000,3.0891279296875,0.14365209639072418,-0.15801730751991272,-0.4596867263317108
1772739590814182400,3.099182373046875,0.14844051003456116,-0.16759411990642548,-0.4572925269603729
1772739590824259800,3.109259765625,0.11252748221158981,-0.1364694982767105,-0.3280056416988373
1772739590834274000,3.119274169921875,0.023942016065120697,-0.1628057211637497,-0.42377370595932007
1772739590844946400,3.129946533203125,0.0694318488240242,-0.19153612852096558,-0.24899697303771973
1772739590866104600,3.1511044921875,-0.12449848651885986,-0.10055647045373917,0.031124621629714966
1772739590874483000,3.15948291015625,-0.15322890877723694,-0.1388636976480484,0.06464344263076782
1772739590884840400,3.16984033203125,-0.19153612852096558,-0.05506663769483566,0.14844051003456116
1772739590894567700,3.179567626953125,-0.16998831927776337,-0.031124621629714966,0.1628057211637497
1772739590904630800,3.189630859375,-0.15801730751991272,-0.09576806426048279,0.24660277366638184
1772739590914628600,3.199628662109375,0.016759412363171577,-0.11013327538967133,0.2992752194404602
1772739590924675600,3.209675537109375,-0.05267243832349777,-0.26815059781074524,0.3878606855869293
1772739590934695200,3.219695068359375,-0.090979665517807,-0.2513911724090576,0.3663128614425659
1772739590944762400,3.229762451171875,-0.05746084079146385,-0.090979665517807,0.2825157940387726
1772739590954760700,3.2397607421875,-0.009576806798577309,-0.08858546614646912,0.35913026332855225
1772739590985195000,3.270195068359375,-0.043095629662275314,-0.08140286058187485,0.1412578970193863
1772739590994881000,3.279881103515625,0.06703764945268631,-0.047884032130241394,0.1867477297782898
1772739591005542100,3.290542236328125,0.3280056416988373,0.1388636976480484,-0.002394201699644327
1772739591014964000,3.2999638671875,0.43095630407333374,0.21308395266532898,0.1388636976480484
1772739591027512800,3.312512939453125,0.5626373887062073,0.07900865375995636,0.19393034279346466
1772739591035053600,3.320053466796875,0.5147533416748047,0.1364694982767105,0.1388636976480484
1772739591045102600,3.3301025390625,0.5171475410461426,0.1173158809542656,0.16759411990642548
1772739591055114800,3.34011474609375,0.2992752194404602,0.12689268589019775,0.11252748221158981
1772739591065166800,3.350166748046875,0.19871874153614044,0.1412578970193863,0.09816227108240128
1772739591085512200,3.37051220703125,0.23702596127986908,0.181959331035614,0.0933738648891449
1772739591095220000,3.380219970703125,0.1149216815829277,0.21547815203666687,0.17477671802043915
1772739591105271000,3.39027099609375,0.181959331035614,0.24181437492370605,0.24420857429504395
1772739591115260000,3.400260009765625,0.17477671802043915,0.0694318488240242,-0.021547814831137657
1772739591125297700,3.410297607421875,0.2801215946674347,-0.1173158809542656,-0.21787235140800476
1772739591135309000,3.42030908203125,0.23942017555236816,-0.14365209639072418,-0.24899697303771973
1772739591145371000,3.430370849609375,0.06703764945268631,-0.09576806426048279,-0.2992752194404602
1772739591155362300,3.4403623046875,0.13168109953403473,0.20111294090747833,-0.26575639843940735
1772739591166007600,3.451007568359375,0.21308395266532898,0.40940847992897034,-0.26336219906806946
1772739591195494000,3.480493896484375,-0.07422025501728058,0.33997663855552673,-0.0071826050989329815
1772739591205537300,3.490537353515625,-0.07182604819536209,0.3280056416988373,-0.009576806798577309
1772739591215580700,3.50058056640625,-0.047884032130241394,0.33039984107017517,0.05267243832349777
1772739591225633800,3.5106337890625,0.1412578970193863,0.3016694188117981,0.2298433631658554
1772739591235624200,3.520624267578125,0.26096799969673157,0.31603461503982544,0.4908113479614258
1772739591245663500,3.53066357421875,0.304063618183136,0.6057330369949341,0.6631938815116882
1772739591255684400,3.540684326171875,0.0071826050989329815,1.0965443849563599,1.113303780555725
1772739591265741000,3.550740966796875,-0.1364694982767105,1.170764684677124,1.357512354850769
1772739591305878500,3.59087841796875,-0.3926490843296051,2.078166961669922,2.1284453868865967
1772739591315868000,3.600867919921875,-0.1388636976480484,2.2218191623687744,2.255337953567505
1772739591326517200,3.611517333984375,0.36152446269989014,2.164358377456665,2.1116859912872314
1772739591335948800,3.62094873046875,0.8595184087753296,2.403778553009033,2.0231003761291504
1772739591348492500,3.633492431640625,1.072602391242981,2.2840683460235596,1.965639591217041
1772739591356025900,3.64102587890625,1.1252747774124146,2.140416383743286,1.7142484188079834
1772739591366062800,3.651062744140625,1.2090718746185303,2.22660756111145,1.53707754611969
1772739591376207000,3.66120703125,1.3479355573654175,2.3798365592956543,1.1659762859344482
1772739591406170000,3.691170166015625,1.357512354850769,3.1100680828094482,1.2617442607879639
1772739591416200200,3.7012001953125,1.1659762859344482,3.2106244564056396,1.1180921792984009
1772739591426273800,3.711273681640625,0.8906430602073669,3.4404678344726562,1.2689268589019775
1772739591436265200,3.72126513671875,0.6153098344802856,3.44765043258667,1.0079588890075684
1772739591446306000,3.73130615234375,0.2059013396501541,3.3039982318878174,1.158793568611145
1772739591456315100,3.741315185546875,-0.06464344263076782,2.9759926795959473,0.8068459630012512
1772739591466367000,3.751366943359375,-0.05506663769483566,2.868253707885742,0.9600749015808105
1772739591476363300,3.76136328125,-0.16998831927776337,2.513911724090576,0.6224924325942993
1772739591498465500,3.783465576171875,-0.5219359993934631,1.9919757843017578,0.3495534360408783
1772739591510172200,3.795172119140625,-1.1516109704971313,1.3311761617660522,0.2968810200691223
1772739591518530600,3.803530517578125,-1.2210428714752197,0.6943184733390808,0.3064578175544739
1772739591528591400,3.81359130859375,-1.53707754611969,0.1604115068912506,0.3711012601852417
1772739591538605300,3.823605224609375,-1.680729627609253,-0.7374141216278076,0.667982280254364
1772739591548677000,3.833677001953125,-1.9177556037902832,-2.0661959648132324,0.7565677165985107
1772739591558670300,3.84367041015625,-2.3965959548950195,-3.8738183975219727,0.3998316824436188
1772739591569190400,3.8541904296875,-2.80361008644104,-5.188235282897949,0.11252748221158981
1772739591578732800,3.86373291015625,-3.1459810733795166,-6.584054470062256,-0.3998316824436188
1772739591608841200,3.89384130859375,-2.9065608978271484,-6.5265936851501465,-0.2585737705230713
1772739591618875100,3.903875244140625,-2.0590133666992188,-6.382941722869873,0.13168109953403473
1772739591628914200,3.9139140625,-1.8770540952682495,-6.375759124755859,0.5913678407669067
1772739591638918400,3.92391845703125,-1.8100165128707886,-7.144298076629639,0.8738836050033569
1772739591649586700,3.934586669921875,-1.5753847360610962,-7.558494567871094,0.9959878921508789
1772739591658983400,3.9439833984375,-1.922544002532959,-7.015010833740234,0.993593692779541
1772739591671505200,3.956505126953125,-2.049436569213867,-5.9519853591918945,0.751779317855835
1772739591679061500,3.9640615234375,-1.9488801956176758,-5.039794445037842,0.6368576288223267
1772739591689424000,3.974423828125,-1.6974890232086182,-4.259284973144531,0.7589619159698486
1772739591709149700,3.994149658203125,-1.7956513166427612,-2.8850131034851074,1.2689268589019775
1772739591719161900,4.004161865234375,-2.054224967956543,-3.2393548488616943,1.4293384552001953
1772739591729227500,4.0142275390625,-2.2002713680267334,-3.308786630630493,1.3096283674240112
1772739591739230500,4.02423046875,-2.408566951751709,-3.3016040325164795,1.0414776802062988
1772739591749261300,4.03426123046875,-2.164358377456665,-2.82515811920166,0.8738836050033569
1772739591759265800,4.044265869140625,-1.742978811264038,-2.5953147411346436,1.194706678390503
1772739591769331000,4.0543310546875,-1.5897499322891235,-1.8148049116134644,1.623268723487854
1772739591779324400,4.064324462890625,-1.7118542194366455,-1.2425906658172607,1.9608511924743652
1772739591789673000,4.0746728515625,-1.601720929145813,-0.9648633003234863,1.9488801956176758
1772739591810035200,4.09503515625,-1.745373010635376,-1.0821791887283325,1.7812861204147339
1772739591819446300,4.1044462890625,-1.702277421951294,-1.5107412338256836,1.8100165128707886
1772739591831086800,4.1160869140625,-1.8602946996688843,-1.9273324012756348,1.7501614093780518
1772739591839499800,4.124499755859375,-1.6376339197158813,-1.867477297782898,1.6280571222305298
1772739591849574400,4.134574462890625,-1.256955862045288,-1.4460978507995605,1.7357962131500244
1772739591859572700,4.14457275390625,-1.0199298858642578,-0.9313444495201111,1.7908629179000854
1772739591869606700,4.154606689453125,-1.0582371950149536,-0.8355764150619507,1.7070658206939697
1772739591879603200,4.164603271484375,-0.7565677165985107,-1.1468225717544556,1.4748282432556152
1772739591889962200,4.174962158203125,-0.7015010714530945,-1.3263877630233765,1.0654197931289673
1772739591919686000,4.204685791015625,-0.2346317619085312,-1.2473790645599365,0.8571242094039917
1772739591929735400,4.2147353515625,0.028730420395731926,-0.828393816947937,0.7254431247711182
1772739591939713500,4.224713623046875,-0.9959878921508789,-0.47884035110473633,-1.1013327836990356
1772739591949743000,4.2347431640625,2.070984363555908,-0.2346317619085312,-1.1109095811843872
1772739591959747800,4.244747802734375,7.726089000701904,-5.185841083526611,3.1244332790374756
1772739591970405000,4.255405029296875,2.956839084625244,-3.1890766620635986,3.423708438873291
1772739591979787300,4.264787353515625,-0.13168109953403473,0.06703764945268631,1.1779472827911377
1772739591992626400,4.27762646484375,-0.38067805767059326,0.9840168952941895,-0.730231523513794
1772739592019920100,4.304920166015625,-0.23702596127986908,0.06703764945268631,-0.3016694188117981
1772739592029947600,4.31494775390625,-0.6727706789970398,-0.30885201692581177,-0.28730419278144836
1772739592039948000,4.324947998046875,-0.6224924325942993,-0.24899697303771973,-0.2537853717803955
1772739592049996800,4.334996826171875,-0.5674257874488831,0.29209262132644653,-0.706289529800415
1772739592059989000,4.344989013671875,-0.5219359993934631,0.4812345504760742,-1.0079588890075684
1772739592070015500,4.355015380859375,-0.49799394607543945,0.5099649429321289,-0.9289502501487732
1772739592080020000,4.36502001953125,-0.05267243832349777,0.42856210470199585,-0.3734954595565796
1772739592090378200,4.375378173828125,0.047884032130241394,0.27054479718208313,-0.1364694982767105
1772739592100062700,4.385062744140625,0.4668693244457245,0.08619125932455063,0.1843535304069519
1772739592130755800,4.415755859375,0.5123591423034668,-0.4189853072166443,0.6009446382522583
1772739592140140500,4.425140625,0.15562310814857483,-0.043095629662275314,0.17956513166427612
1772739592151806700,4.436806640625,0.033518824726343155,0.21787235140800476,0.2346317619085312
1772739592160190200,4.445190185546875,0.0933738648891449,0.5219359993934631,0.2322375625371933
1772739592170243300,4.455243408203125,0.3016694188117981,0.7805097699165344,-0.0071826050989329815
1772739592180222700,4.46522265625,-0.29209262132644653,0.5602431893348694,-0.42856210470199585
1772739592190559200,4.475559326171875,-0.5195417404174805,0.06464344263076782,0.031124621629714966
1772739592200252700,4.485252685546875,-0.016759412363171577,-0.07661445438861847,0.6847416758537292
1772739592230332400,4.51533251953125,0.15322890877723694,0.33997663855552673,0.021547814831137657
1772739592240342000,4.525342041015625,0.07661445438861847,0.31603461503982544,0.009576806798577309
1772739592250403800,4.53540380859375,0.10773907601833344,0.17717093229293823,0.043095629662275314
1772739592260386000,4.545385986328125,0.031124621629714966,0.35434186458587646,-0.0694318488240242
1772739592270414000,4.5554140625,0.038307227194309235,0.45489832758903503,-0.1843535304069519
1772739592280413700,4.56541357421875,0.10055647045373917,0.49799394607543945,-0.2801215946674347
1772739592291385900,4.5763857421875,0.13168109953403473,0.35913026332855225,-0.24899697303771973
1772739592300475600,4.5854755859375,-0.004788403399288654,0.2561795711517334,-0.40701428055763245
1772739592330579000,4.615578857421875,-0.49799394607543945,-0.021547814831137657,-0.20111294090747833
1772739592340566500,4.62556640625,-0.5099649429321289,-0.12689268589019775,-0.0694318488240242
1772739592350594000,4.635593994140625,-0.2801215946674347,-0.26336219906806946,0.1604115068912506
1772739592360593200,4.64559326171875,-0.11971008777618408,-0.3687070608139038,0.3687070608139038
1772739592370645200,4.655645263671875,-0.05746084079146385,-0.20350714027881622,0.47405192255973816
1772739592380633600,4.665633544921875,0.17238251864910126,0.10534487664699554,0.44532153010368347
1772739592390990300,4.675990234375,0.1412578970193863,0.0694318488240242,0.3256114423274994
1772739592400684300,4.685684326171875,0.35434186458587646,0.08379705995321274,0.14365209639072418
1772739592410738400,4.695738525390625,0.4572925269603729,0.45250412821769714,0.19871874153614044
1772739592440793600,4.725793701171875,0.3423708379268646,1.2330138683319092,-0.24660277366638184
1772739592451459800,4.7364599609375,0.3495534360408783,1.525106430053711,-0.22266076505184174
1772739592460843500,4.745843505859375,0.5386953949928284,1.6041151285171509,-0.05027823522686958
1772739592472475400,4.757475341796875,0.524330198764801,1.577778935432434,-0.13168109953403473
1772739592480883500,4.765883544921875,0.13407529890537262,1.0582371950149536,-0.26575639843940735
1772739592491259100,4.776259033203125,-0.11252748221158981,0.828393816947937,-0.2849099934101105
1772739592511005200,4.796005126953125,-0.4572925269603729,-0.0694318488240242,-0.6344634294509888
1772739592521014500,4.8060146484375,-0.5841852426528931,-0.3519476354122162,-0.3471592366695404
1772739592551143200,4.83614306640625,-0.24420857429504395,-0.33758243918418884,-0.24899697303771973
1772739592561162500,4.84616259765625,-0.3064578175544739,-0.5530605912208557,-0.2944868206977844
1772739592571241000,4.856240966796875,-0.31603461503982544,-0.7565677165985107,-0.028730420395731926
1772739592581246000,4.866245849609375,-0.22505496442317963,-0.8786720037460327,0.0454898327589035
1772739592591620000,4.8766201171875,-0.27054479718208313,-0.8643068075180054,-0.05985504388809204
1772739592601308700,4.88630859375,-0.19632454216480255,-1.0438719987869263,0.12449848651885986
1772739592612024000,4.897024169921875,-0.08140286058187485,-1.1324573755264282,0.09576806426048279
1772739592621422300,4.90642236328125,-0.1173158809542656,-1.0797849893569946,0.10295066982507706
1772739592633952500,4.918952392578125,-0.10295066982507706,-0.8379706144332886,-0.038307227194309235
1772739592651586000,4.9365859375,-0.4213795065879822,-0.9600749015808105,-0.1149216815829277
1772739592661588000,4.946587890625,-0.14604631066322327,-1.0773907899856567,-0.17477671802043915
1772739592671637000,4.956636962890625,0.021547814831137657,-0.751779317855835,-0.12210428714752197
1772739592681664800,4.966664794921875,0.10055647045373917,-0.42377370595932007,-0.08379705995321274
1772739592692046000,4.977046142578125,0.3256114423274994,-0.17956513166427612,-0.1412578970193863
1772739592701749000,4.9867490234375,0.3064578175544739,0,-0.26336219906806946
1772739592711801900,4.9968017578125,0.19393034279346466,0.35913026332855225,-0.26336219906806946
1772739592721822000,5.006822021484375,-0.004788403399288654,0.2944868206977844,-0.4644751250743866
1772739592751962600,5.036962646484375,0.31364041566848755,0.49799394607543945,0.15083470940589905
1772739592761987000,5.046987060546875,0.1173158809542656,0.689530074596405,-0.47165772318840027
1772739592772663300,5.057663330078125,-0.6129156351089478,0.7326257228851318,-0.45489832758903503
1772739592782092800,5.0670927734375,-0.028730420395731926,0.3711012601852417,0.49799394607543945
1772739592794098000,5.079097900390625,0.31364041566848755,-0.004788403399288654,0.727837324142456
1772739592802193200,5.087193115234375,0.29209262132644653,0.27054479718208313,0.05985504388809204
1772739592812258300,5.09725830078125,0.4644751250743866,0.2801215946674347,0.363918662071228
1772739592822295000,5.107294921875,0.4213795065879822,0.2944868206977844,0.5434837937355042
1772739592852451000,5.137451171875,0.3232172429561615,0.2777273952960968,0.5841852426528931
1772739592862469400,5.147469482421875,0.16759411990642548,0.19632454216480255,0.6703764796257019
1772739592872529700,5.15752978515625,0.1867477297782898,-0.08858546614646912,0.8619126081466675
1772739592882551300,5.16755126953125,-0.090979665517807,-0.5003881454467773,1.4772224426269531
1772739592892933400,5.177933349609375,0.2513911724090576,-1.0223240852355957,1.7525556087493896
1772739592902634500,5.187634521484375,-0.16519992053508759,-0.43335050344467163,1.5155296325683594
1772739592912682000,5.197681884765625,-0.42856210470199585,-0.24420857429504395,1.048660397529602
1772739592922699800,5.20769970703125,-0.6177040338516235,0.05746084079146385,0.8523358106613159
1772739592955291400,5.24029150390625,-0.8858546018600464,0.7805097699165344,-0.002394201699644327
1772739592962994000,5.247993896484375,-0.7134721279144287,0.8834604024887085,-0.043095629662275314
1772739592972918300,5.257918212890625,-0.7326257228851318,1.0127472877502441,-0.26575639843940735
1772739592982912300,5.267912353515625,-0.8044517636299133,1.0582371950149536,-0.3926490843296051
1772739592993265400,5.278265380859375,-0.9097966551780701,1.0079588890075684,-0.5291185975074768
1772739593002964500,5.287964599609375,-1.1540051698684692,0.912190854549408,-0.5578489899635315
1772739593013024500,5.2980244140625,-1.235408067703247,0.8882488012313843,-0.6512228846549988
1772739593023048400,5.30804833984375,-0.4668693244457245,0.6488286852836609,0.40940847992897034
1772739593033090300,5.31809033203125,-0.028730420395731926,0.8188169598579407,-0.47165772318840027
1772739593053170400,5.33817041015625,1.7286136150360107,-0.8834604024887085,-0.06224924325942993
1772739593063174100,5.348174072265625,1.6184803247451782,-1.3215993642807007,-0.33039984107017517
1772739593073223400,5.358223388671875,1.4700398445129395,-2.0829553604125977,-0.9026140570640564
1772739593083236900,5.36823681640625,0.5147533416748047,-1.1180921792984009,-0.9385270476341248
1772739593094224600,5.379224609375,-0.07182604819536209,-0.3758896589279175,-0.6751648783683777
1772739593103328500,5.38832861328125,-0.5051765441894531,-0.2513911724090576,-0.4189853072166443
1772739593114972200,5.39997216796875,-0.5889736413955688,-0.12449848651885986,-0.3208230137825012
1772739593123397400,5.4083974609375,-0.40940847992897034,-0.016759412363171577,-0.33279404044151306
1772739593133458400,5.41845849609375,-0.26336219906806946,0.1412578970193863,-0.26815059781074524
1772739593173595400,5.458595458984375,0.4812345504760742,0.16998831927776337,-0.16519992053508759
1772739593183606800,5.468606689453125,0.2322375625371933,0.2513911724090576,-0.2322375625371933
1772739593193960400,5.47896044921875,-0.0694318488240242,0.12449848651885986,-0.35434186458587646
1772739593203667700,5.488667724609375,-0.040701430290937424,0.031124621629714966,-0.5291185975074768
1772739593213733400,5.4987333984375,-0.10534487664699554,-0.10055647045373917,-0.4596867263317108
1772739593223761400,5.508761474609375,-0.1412578970193863,-0.5482721924781799,-0.3758896589279175
1772739593233812000,5.51881201171875,-0.07422025501728058,-0.5003881454467773,-0.1604115068912506
1772739593243847000,5.528846923828125,-0.15562310814857483,-0.5339069962501526,-0.07422025501728058
1772739593276465700,5.561465576171875,-0.07661445438861847,0.23942017555236816,-0.038307227194309235
1772739593284035000,5.56903515625,-0.15801730751991272,0.09816227108240128,-0.15322890877723694
1772739593294419000,5.5794189453125,-0.2561795711517334,-0.07661445438861847,-0.12689268589019775
1772739593304117000,5.589116943359375,-0.24420857429504395,-0.3064578175544739,-0.15562310814857483
1772739593314164500,5.59916455078125,-0.49320554733276367,-0.5530605912208557,-0.15083470940589905
1772739593324180700,5.6091806640625,-0.5027823448181152,-0.7613561153411865,-0.1149216815829277
1772739593334246400,5.619246337890625,-0.507570743560791,-0.871489405632019,-0.1388636976480484
1772739593344256000,5.629256103515625,-0.6009446382522583,-0.7254431247711182,-0.0933738648891449
1772739593354304000,5.639303955078125,-0.48602294921875,-0.6129156351089478,-0.15801730751991272
1772739593384399600,5.669399658203125,-0.19632454216480255,-0.28969839215278625,-0.06464344263076782
1772739593394759000,5.679759033203125,-0.30885201692581177,-0.16998831927776337,-0.05746084079146385
1772739593404458000,5.6894580078125,-0.15562310814857483,-0.08858546614646912,-0.035913024097681046
1772739593415129900,5.7001298828125,-0.16519992053508759,0.031124621629714966,-0.0933738648891449
1772739593424524300,5.709524169921875,-0.0071826050989329815,0.12210428714752197,0.035913024097681046
1772739593436204500,5.72120458984375,-0.026336219161748886,0.17717093229293823,0.07182604819536209
1772739593444593700,5.72959375,-0.08858546614646912,0.12449848651885986,-0.2968810200691223
1772739593454649900,5.73964990234375,-0.016759412363171577,0.11013327538967133,-0.31364041566848755
1772739593464638500,5.749638427734375,-0.023942016065120697,0.028730420395731926,-0.0454898327589035
1772739593495060000,5.78006005859375,0.19393034279346466,0.21547815203666687,-0.2585737705230713
1772739593504783000,5.789783203125,0.181959331035614,0.2753331959247589,-0.17956513166427612
1772739593514828500,5.79982861328125,0.21787235140800476,0.36152446269989014,-0.23942017555236816
1772739593524843000,5.809843017578125,0.15322890877723694,0.35673606395721436,-0.1149216815829277
1772739593534907100,5.8199072265625,0.14365209639072418,0.3878606855869293,-0.090979665517807
1772739593544925000,5.829925048828125,0.026336219161748886,0.3519476354122162,-0.12689268589019775
1772739593554967800,5.8399677734375,0.05506663769483566,0.3471592366695404,-0.1628057211637497
1772739593564970000,5.849969970703125,-0.038307227194309235,0.15562310814857483,-0.17238251864910126
1772739593575630300,5.86063037109375,0.002394201699644327,-0.24660277366638184,-0.07661445438861847
1772739593598118100,5.8831181640625,-0.19871874153614044,-0.42616790533065796,0.13168109953403473
1772739593605567500,5.8905673828125,-0.20350714027881622,-0.35913026332855225,0.08379705995321274
1772739593615156500,5.900156494140625,-0.21547815203666687,-0.2298433631658554,0.05267243832349777
1772739593625168000,5.91016796875,-0.09816227108240128,-0.19871874153614044,0.07661445438861847
1772739593635220500,5.920220458984375,-0.21308395266532898,-0.09816227108240128,0.0694318488240242
1772739593645235200,5.930235107421875,-0.13407529890537262,-0.05985504388809204,0.014365210197865963
1772739593655306500,5.940306396484375,-0.05746084079146385,-0.028730420395731926,0.06224924325942993
1772739593665291800,5.950291748046875,-0.1412578970193863,0.016759412363171577,-0.016759412363171577
1772739593695724500,5.980724609375,-0.1867477297782898,-0.17717093229293823,-0.019153613597154617
1772739593705398800,5.990398681640625,-0.12210428714752197,-0.13168109953403473,-0.05506663769483566
1772739593715453200,6.000453125,-0.18914192914962769,-0.16998831927776337,-0.11252748221158981
1772739593725455600,6.01045556640625,-0.026336219161748886,-0.009576806798577309,-0.028730420395731926
1772739593736139300,6.02113916015625,-0.016759412363171577,-0.004788403399288654,-0.023942016065120697
1772739593745512200,6.03051220703125,0.021547814831137657,-0.026336219161748886,-0.0933738648891449
1772739593757164500,6.04216455078125,-0.023942016065120697,0.05027823522686958,-0.12928688526153564
1772739593765589800,6.05058984375,0,0.05746084079146385,-0.1173158809542656
1772739593795989200,6.0809892578125,0.009576806798577309,0.1843535304069519,0.004788403399288654
1772739593805700400,6.090700439453125,-0.033518824726343155,0.19871874153614044,-0.05267243832349777
1772739593815753000,6.1007529296875,-0.031124621629714966,0.10055647045373917,-0.021547814831137657
1772739593825749200,6.110749267578125,-0.011971008032560349,0.14844051003456116,-0.002394201699644327
1772739593835786800,6.120786865234375,-0.05985504388809204,-0.014365210197865963,-0.040701430290937424
1772739593845803300,6.13080322265625,-0.011971008032560349,-0.009576806798577309,-0.026336219161748886
1772739593855860200,6.140860107421875,-0.07422025501728058,0.09576806426048279,-0.026336219161748886
1772739593865849900,6.150849853515625,0.014365210197865963,-0.019153613597154617,-0.043095629662275314
1772739593875885600,6.160885498046875,-0.07182604819536209,-0.004788403399288654,-0.05746084079146385
1772739593905976300,6.190976318359375,-0.05985504388809204,0.05267243832349777,-0.004788403399288654
1772739593918498000,6.203498046875,-0.004788403399288654,-0.05985504388809204,-0.002394201699644327
1772739593926062300,6.211062255859375,-0.08140286058187485,0.019153613597154617,-0.1149216815829277
1772739593936125200,6.221125244140625,-0.11971008777618408,-0.047884032130241394,-0.016759412363171577
1772739593946119000,6.231118896484375,-0.05506663769483566,-0.035913024097681046,-0.038307227194309235
1772739593956157200,6.2411572265625,-0.040701430290937424,-0.035913024097681046,0.002394201699644327
1772739593966167000,6.2511669921875,-0.043095629662275314,0.0454898327589035,-0.038307227194309235
1772739593976225000,6.26122509765625,-0.1149216815829277,-0.08858546614646912,-0.05267243832349777
1772739593986226400,6.271226318359375,-0.05746084079146385,-0.05267243832349777,-0.05985504388809204
1772739594016344000,6.301343994140625,-0.033518824726343155,0.05985504388809204,-0.05506663769483566
1772739594026375000,6.311375,0.023942016065120697,0.15801730751991272,-0.05267243832349777
1772739594036433000,6.321432861328125,0.014365210197865963,0.1867477297782898,-0.05027823522686958
1772739594046457000,6.33145703125,0.033518824726343155,0.19871874153614044,-0.009576806798577309
1772739594057132300,6.34213232421875,0.026336219161748886,0.09576806426048279,-0.0454898327589035
1772739594066529300,6.351529296875,0.0454898327589035,0.07900865375995636,-0.05506663769483566
1772739594078205700,6.363205810546875,-0.13168109953403473,0.004788403399288654,-0.016759412363171577
1772739594086609200,6.371609130859375,-0.05746084079146385,-0.047884032130241394,-0.014365210197865963
1772739594096969700,6.3819697265625,-0.07900865375995636,-0.1173158809542656,-0.035913024097681046
1772739594116681700,6.401681640625,0.033518824726343155,0.026336219161748886,-0.05267243832349777
1772739594126695200,6.411695068359375,-0.06703764945268631,0.06464344263076782,-0.021547814831137657
1772739594136751600,6.421751708984375,-0.05267243832349777,0.11252748221158981,-0.05985504388809204
1772739594146749000,6.4317490234375,-0.002394201699644327,0.12210428714752197,-0.021547814831137657
1772739594156780000,6.441780029296875,-0.035913024097681046,0.16759411990642548,0.019153613597154617
1772739594166783000,6.451782958984375,-0.08140286058187485,0.002394201699644327,0.023942016065120697
1772739594176842000,6.461842041015625,-0.0454898327589035,-0.021547814831137657,-0.11013327538967133
1772739594186827500,6.47182763671875,-0.06703764945268631,-0.09816227108240128,-0.10295066982507706
1772739594197166000,6.482166015625,-0.05985504388809204,-0.05506663769483566,-0.021547814831137657
1772739594217517800,6.502517822265625,-0.040701430290937424,-0.06224924325942993,-0.08619125932455063
1772739594226911500,6.511911376953125,-0.12449848651885986,-0.05746084079146385,-0.040701430290937424
1772739594239438000,6.52443798828125,0.019153613597154617,-0.023942016065120697,-0.035913024097681046
1772739594246994400,6.531994384765625,-0.031124621629714966,-0.016759412363171577,-0.10773907601833344
1772739594257060600,6.542060546875,0.05506663769483566,0.11013327538967133,-0.07661445438861847
1772739594267058000,6.552057861328125,0.11971008777618408,0.05267243832349777,-0.014365210197865963
1772739594277121300,6.562121337890625,-0.019153613597154617,0.035913024097681046,-0.05985504388809204
1772739594287134200,6.57213427734375,0.004788403399288654,0.1388636976480484,0.031124621629714966
1772739594297507000,6.582507080078125,0.08619125932455063,0.15562310814857483,0.028730420395731926
1772739594307204400,6.592204345703125,-0.004788403399288654,0.2106897532939911,0.031124621629714966
1772739594327264300,6.61226416015625,0.035913024097681046,0.19153612852096558,0.14365209639072418
1772739594337305300,6.622305419921875,0.047884032130241394,0.17238251864910126,0.15801730751991272
1772739594347315700,6.632315673828125,0.009576806798577309,0.272938996553421,0.19393034279346466
1772739594357371400,6.642371337890625,0.05267243832349777,0.3256114423274994,0.1149216815829277
1772739594367359500,6.652359375,-0.028730420395731926,0.33758243918418884,0.05027823522686958
1772739594378002200,6.663002197265625,-0.07182604819536209,0.0694318488240242,0.033518824726343155
1772739594387405600,6.672405517578125,-0.05746084079146385,-0.08140286058187485,0.06464344263076782
1772739594399361800,6.68436181640625,-0.14844051003456116,-0.17717093229293823,0.07422025501728058
1772739594407470300,6.69247021484375,-0.1364694982767105,-0.2585737705230713,-0.016759412363171577
1772739594437595400,6.722595458984375,-0.06464344263076782,0.016759412363171577,0.033518824726343155
1772739594447583700,6.732583740234375,-0.002394201699644327,0.10295066982507706,-0.033518824726343155
1772739594457616000,6.742615966796875,-0.004788403399288654,0.07182604819536209,0.019153613597154617
1772739594467629000,6.752629150390625,-0.011971008032560349,0.21308395266532898,0.08140286058187485
1772739594477689600,6.762689697265625,0.023942016065120697,0.1604115068912506,-0.002394201699644327
1772739594487674000,6.772674072265625,-0.019153613597154617,0.27054479718208313,0.016759412363171577
1772739594498013000,6.783012939453125,-0.026336219161748886,0.17956513166427612,-0.035913024097681046
1772739594508747300,6.793747314453125,-0.031124621629714966,0.2298433631658554,-0.019153613597154617
1772739594539450600,6.82445068359375,-0.004788403399288654,0.08858546614646912,-0.06703764945268631
1772739594548852700,6.833852783203125,-0.090979665517807,-0.026336219161748886,-0.009576806798577309
1772739594561387500,6.846387451171875,-0.0694318488240242,0.009576806798577309,-0.07900865375995636
1772739594568916000,6.853916015625,-0.035913024097681046,0.08140286058187485,-0.05506663769483566
1772739594578951700,6.86395166015625,-0.07182604819536209,0.11252748221158981,-0.031124621629714966
1772739594588954400,6.873954345703125,0.033518824726343155,0.1388636976480484,0.026336219161748886
1772739594599316500,6.88431640625,0.09816227108240128,0.090979665517807,0.004788403399288654
1772739594609001000,6.8940009765625,-0.035913024097681046,0.15801730751991272,-0.07661445438861847
1772739594619036000,6.904035888671875,0.021547814831137657,0.10055647045373917,-0.06464344263076782
1772739594649095400,6.934095458984375,0.011971008032560349,0.1843535304069519,0.026336219161748886
1772739594659131400,6.94413134765625,0,0.12449848651885986,0.12210428714752197
1772739594669132300,6.95413232421875,-0.033518824726343155,0.090979665517807,0.038307227194309235
1772739594679185000,6.964184814453125,-0.004788403399288654,-0.023942016065120697,0.05506663769483566
1772739594689165600,6.97416552734375,0.26336219906806946,-0.07900865375995636,0.0694318488240242
1772739594700114700,6.98511474609375,0.14604631066322327,-0.1604115068912506,0.028730420395731926
1772739594709206800,6.994206787109375,0.1173158809542656,0.047884032130241394,-0.014365210197865963
1772739594720904000,7.005904052734375,-0.038307227194309235,-0.014365210197865963,-0.06224924325942993
1772739594749298400,7.03429833984375,-0.24420857429504395,-0.18914192914962769,-0.07422025501728058
1772739594759370000,7.044369873046875,-0.28730419278144836,-0.08140286058187485,0.004788403399288654
1772739594769364000,7.054364013671875,-0.37828385829925537,-0.05027823522686958,-0.10295066982507706
1772739594779398100,7.064398193359375,-0.31124621629714966,0.07900865375995636,-0.08140286058187485
1772739594789416200,7.074416259765625,-0.1412578970193863,0.22744916379451752,-0.040701430290937424
1772739594799787000,7.084787109375,0.014365210197865963,0.33518823981285095,0.05506663769483566
1772739594809464300,7.09446435546875,-0.019153613597154617,0.31124621629714966,0
1772739594819496400,7.104496337890625,0.019153613597154617,0.2322375625371933,0.019153613597154617
1772739594849576000,7.134575927734375,-0.05027823522686958,-0.011971008032560349,0.06224924325942993
1772739594860220200,7.14522021484375,0.0071826050989329815,-0.047884032130241394,0.023942016065120697
1772739594869628000,7.1546279296875,-0.023942016065120697,0,-0.0071826050989329815
1772739594882163500,7.16716357421875,0.031124621629714966,0.016759412363171577,0.009576806798577309
1772739594889690000,7.174690185546875,-0.10534487664699554,0.011971008032560349,0.023942016065120697
1772739594900053500,7.185053466796875,-0.05506663769483566,0.016759412363171577,0.038307227194309235
1772739594909762300,7.19476220703125,-0.043095629662275314,-0.0071826050989329815,0.028730420395731926
1772739594919813400,7.2048134765625,-0.043095629662275314,-0.033518824726343155,0.014365210197865963
1772739594929802500,7.214802490234375,-0.031124621629714966,-0.0694318488240242,-0.033518824726343155
1772739594959903500,7.244903564453125,-0.17477671802043915,-0.1867477297782898,-0.13407529890537262
1772739594969888500,7.254888427734375,-0.15562310814857483,-0.22505496442317963,0.026336219161748886
1772739594979922700,7.264922607421875,-0.16998831927776337,-0.2082955539226532,-0.06464344263076782
1772739594989924900,7.2749248046875,-0.08858546614646912,-0.24420857429504395,-0.08858546614646912
1772739595000303900,7.285303955078125,-0.1628057211637497,-0.19632454216480255,-0.002394201699644327
1772739595009986800,7.29498681640625,-0.15562310814857483,-0.17477671802043915,0.011971008032560349
1772739595020637000,7.305636962890625,-0.043095629662275314,-0.10773907601833344,-0.0454898327589035
1772739595030058000,7.31505810546875,-0.05027823522686958,-0.08858546614646912,0
1772739595060205300,7.345205322265625,-0.05746084079146385,-0.019153613597154617,0.033518824726343155
1772739595070224000,7.355223876953125,-0.09816227108240128,-0.07900865375995636,0.026336219161748886
1772739595080300800,7.36530078125,-0.09816227108240128,-0.20111294090747833,0.009576806798577309
1772739595090685400,7.375685546875,-0.06224924325942993,-0.24181437492370605,-0.035913024097681046
1772739595100663000,7.3856630859375,-0.19393034279346466,-0.3447650372982025,-0.0071826050989329815
1772739595110383900,7.3953837890625,-0.13407529890537262,-0.5339069962501526,0.014365210197865963
1772739595120462800,7.405462890625,-0.17717093229293823,-0.6320692300796509,0.0694318488240242
1772739595130483000,7.41548291015625,-0.17238251864910126,-0.6177040338516235,-0.040701430290937424
1772739595160634600,7.445634521484375,-0.05027823522686958,-0.4118026793003082,-0.014365210197865963
1772739595170645000,7.45564501953125,-0.031124621629714966,0.17717093229293823,0.011971008032560349
1772739595181304600,7.4663046875,-0.08858546614646912,0.49320554733276367,-0.10773907601833344
1772739595190724400,7.475724365234375,0.047884032130241394,0.3256114423274994,0.014365210197865963
1772739595203629300,7.48862939453125,0.031124621629714966,0.2992752194404602,0.040701430290937424
1772739595211092200,7.49609228515625,0.3256114423274994,0.5099649429321289,-0.19393034279346466
1772739595220895700,7.505895751953125,0.2298433631658554,0.7709329724311829,-0.11252748221158981
1772739595230942000,7.51594189453125,0.2082955539226532,0.6823474764823914,-0.16998831927776337
1772739595241005300,7.52600537109375,0.2059013396501541,0.5219359993934631,-0.23942017555236816
1772739595261042000,7.5460419921875,-0.11013327538967133,0.0933738648891449,-0.21308395266532898
1772739595271063800,7.556063720703125,-0.090979665517807,-0.23702596127986908,-0.29209262132644653
1772739595281122800,7.566122802734375,-0.06224924325942993,-0.24181437492370605,-0.090979665517807
1772739595291117600,7.57611767578125,-0.023942016065120697,-0.009576806798577309,-0.004788403399288654
1772739595301469000,7.586468994140625,-0.016759412363171577,0.21547815203666687,0.26815059781074524
1772739595311180000,7.596179931640625,0.07900865375995636,0.667982280254364,0.3232172429561615
1772739595321243000,7.606242919921875,0.12689268589019775,0.9481038451194763,0.3447650372982025
1772739595331240000,7.616239990234375,0.15322890877723694,1.01753568649292,0.5315127968788147
1772739595341887200,7.62688720703125,0.09816227108240128,0.9864110946655273,0.4812345504760742
1772739595363012600,7.6480126953125,0.11013327538967133,0.5770025849342346,0.5267243981361389
1772739595371370800,7.656370849609375,0.023942016065120697,0.3423708379268646,0.43095630407333374
1772739595381421300,7.66642138671875,-0.07182604819536209,0.2753331959247589,0.47165772318840027
1772739595391427600,7.676427490234375,-0.1843535304069519,0.19153612852096558,0.49559974670410156
1772739595401796600,7.686796630859375,-0.16519992053508759,0.07900865375995636,0.35673606395721436
1772739595411474000,7.696473876953125,-0.20350714027881622,0.15801730751991272,0.2585737705230713
1772739595421512400,7.706512451171875,-0.12210428714752197,0.031124621629714966,0.2513911724090576
1772739595431533600,7.716533447265625,0.019153613597154617,-0.10295066982507706,0.08379705995321274
1772739595441590800,7.7265908203125,0.21547815203666687,-0.10534487664699554,0.08619125932455063
1772739595471651000,7.756651123046875,-0.033518824726343155,0.08379705995321274,-0.15083470940589905
1772739595481707800,7.766707763671875,0.07661445438861847,0.2106897532939911,-0.16998831927776337
1772739595491698000,7.776697998046875,0.10534487664699554,0.3016694188117981,-0.21787235140800476
1772739595502648000,7.78764794921875,0.08619125932455063,0.38546648621559143,-0.10055647045373917
1772739595512770300,7.797770263671875,0.10773907601833344,0.26336219906806946,-0.12210428714752197
1772739595525362400,7.810362548828125,0.06224924325942993,0.002394201699644327,-0.1149216815829277
1772739595532847600,7.81784765625,-0.12449848651885986,-0.12928688526153564,-0.17717093229293823
1772739595542892000,7.82789208984375,-0.047884032130241394,-0.2777273952960968,-0.1843535304069519
1772739595552907000,7.837906982421875,-0.09816227108240128,-0.19632454216480255,-0.10055647045373917
1772739595583007700,7.8680078125,0.0454898327589035,0.15801730751991272,-0.035913024097681046
1772739595593030400,7.878030517578125,0.004788403399288654,0.36152446269989014,-0.0933738648891449
1772739595603411700,7.88841162109375,0.05506663769483566,0.35913026332855225,0.0694318488240242
1772739595613072400,7.898072265625,0.08858546614646912,0.4118026793003082,0.05267243832349777
1772739595623127600,7.90812744140625,0.05027823522686958,0.1628057211637497,0.14844051003456116
1772739595633175000,7.918175048828125,-0.033518824726343155,0.18914192914962769,0.0454898327589035
1772739595643232000,7.92823193359375,-0.09576806426048279,0.019153613597154617,0.07182604819536209
1772739595653218600,7.938218505859375,-0.1604115068912506,-0.05506663769483566,0.08140286058187485
1772739595663863800,7.94886376953125,-0.2082955539226532,-0.14604631066322327,0.15562310814857483
1772739595684935000,7.969934814453125,-0.17477671802043915,-0.11013327538967133,0.1388636976480484
1772739595693341000,7.9783408203125,-0.1412578970193863,-0.31124621629714966,0.08619125932455063
1772739595703688700,7.988688720703125,-0.10055647045373917,-0.06224924325942993,0.004788403399288654
1772739595713403100,7.998403076171875,-0.035913024097681046,0.026336219161748886,0
1772739595723466000,8.008466064453126,0.05506663769483566,0.16998831927776337,0.06464344263076782
1772739595733448400,8.018448486328126,-0.035913024097681046,0.15562310814857483,-0.028730420395731926
1772739595743476500,8.0284765625,-0.05746084079146385,-0.05027823522686958,0.023942016065120697
1772739595753505500,8.038505615234374,-0.040701430290937424,-0.06464344263076782,-0.05027823522686958
1772739595763554600,8.048554443359375,0.05506663769483566,0.019153613597154617,0.033518824726343155
1772739595793578500,8.07857861328125,0.011971008032560349,-0.026336219161748886,0.011971008032560349
1772739595803950000,8.0889501953125,-0.11971008777618408,-0.035913024097681046,-0.014365210197865963
1772739595813610200,8.0986103515625,-0.033518824726343155,0.011971008032560349,-0.026336219161748886
1772739595824249600,8.10924951171875,-0.033518824726343155,0.05267243832349777,0.05506663769483566
1772739595833650700,8.118650634765626,0.004788403399288654,0.0454898327589035,0.0933738648891449
1772739595846179600,8.1311796875,-0.009576806798577309,0.19153612852096558,0.0071826050989329815
1772739595853706200,8.138706298828126,-0.20350714027881622,0.5554547905921936,-0.2944868206977844
1772739595863745300,8.148745361328125,-0.040701430290937424,0.17717093229293823,0.181959331035614
1772739595893785600,8.17878564453125,-0.24420857429504395,-0.12928688526153564,0.06464344263076782
1772739595904130600,8.189130615234374,-0.20350714027881622,-0.2082955539226532,0.18914192914962769
1772739595913842400,8.198842529296876,-0.18914192914962769,-0.24181437492370605,0.2825157940387726
1772739595923899400,8.2088994140625,-0.2059013396501541,-0.24420857429504395,0.14844051003456116
1772739595933891600,8.2188916015625,-0.20350714027881622,-0.0933738648891449,0.1867477297782898
1772739595943939600,8.228939697265625,-0.05027823522686958,-0.002394201699644327,0.09816227108240128
1772739595953955300,8.238955322265625,-0.0071826050989329815,0.090979665517807,0.038307227194309235
1772739595964018000,8.249017822265625,0.16519992053508759,0.14844051003456116,0.031124621629714966
1772739595974010600,8.2590107421875,0.1364694982767105,-0.014365210197865963,0.10295066982507706
1772739595994077400,8.279077392578126,0.5147533416748047,-0.19153612852096558,0.0454898327589035
1772739596006087400,8.29108740234375,0.08379705995321274,-0.22744916379451752,0.011971008032560349
1772739596014156300,8.29915625,-0.1867477297782898,-0.12210428714752197,-0.1628057211637497
1772739596024192000,8.30919189453125,-0.3471592366695404,-0.1843535304069519,-0.2346317619085312
1772739596034228700,8.319228759765625,-0.35673606395721436,-0.26336219906806946,-0.043095629662275314
1772739596044284200,8.3292841796875,-0.2585737705230713,-0.2561795711517334,0.1412578970193863
1772739596054272000,8.33927197265625,-0.47165772318840027,-0.047884032130241394,0.21787235140800476
1772739596064307500,8.349307373046875,-0.36152446269989014,0.20111294090747833,0.22505496442317963
1772739596074326300,8.359326171875,-0.12689268589019775,0.3711012601852417,0.1867477297782898
1772739596104735200,8.3897353515625,0.028730420395731926,0.3734954595565796,0.028730420395731926
1772739596114443300,8.399443359375,0.0694318488240242,0.05506663769483566,0.043095629662275314
1772739596124493800,8.409493896484374,0.035913024097681046,-0.06224924325942993,-0.023942016065120697
1772739596134479600,8.419479736328125,-0.0071826050989329815,-0.08619125932455063,-0.038307227194309235
1772739596145120300,8.430120361328125,-0.16519992053508759,0.043095629662275314,-0.043095629662275314
1772739596154523000,8.43952294921875,-0.17717093229293823,-0.1388636976480484,-0.031124621629714966
1772739596167062300,8.452062255859374,-0.15562310814857483,-0.06224924325942993,0.08858546614646912
1772739596174590000,8.45958984375,-0.11013327538967133,-0.16998831927776337,0.05985504388809204
1772739596204994800,8.489994873046875,-0.15562310814857483,-0.17477671802043915,-0.0694318488240242
1772739596214675700,8.49967578125,0.002394201699644327,-0.043095629662275314,0.028730420395731926
1772739596224710700,8.509710693359375,0.031124621629714966,0.043095629662275314,0.002394201699644327
1772739596234725000,8.51972509765625,-0.011971008032560349,0.031124621629714966,0.0694318488240242
1772739596244775200,8.529775146484376,-0.14844051003456116,-0.026336219161748886,0.026336219161748886
1772739596254770200,8.539770263671874,-0.09576806426048279,-0.1604115068912506,0.023942016065120697
1772739596264800300,8.54980029296875,0,-0.033518824726343155,0.031124621629714966
1772739596274808300,8.559808349609375,-0.0071826050989329815,0.0933738648891449,-0.10295066982507706
1772739596284863000,8.569863037109375,0.023942016065120697,-0.014365210197865963,-0.035913024097681046
1772739596314901200,8.5999013671875,0.026336219161748886,0.15801730751991272,-0.08379705995321274
1772739596326546200,8.611546142578124,0.08858546614646912,0.15801730751991272,-0.06224924325942993
1772739596334954500,8.61995458984375,0.0694318488240242,0.2992752194404602,-0.15083470940589905
1772739596344987600,8.629987548828124,0.002394201699644327,0.2968810200691223,0.047884032130241394
1772739596355005200,8.640005126953126,0.002394201699644327,0.3687070608139038,-0.05027823522686958
1772739596365056300,8.65005615234375,0,0.3208230137825012,-0.10295066982507706
1772739596375042300,8.660042236328126,0.009576806798577309,0.14844051003456116,-0.19632454216480255
1772739596385074400,8.670074462890625,-0.08858546614646912,0.002394201699644327,-0.17717093229293823
1772739596415170600,8.700170654296874,-0.19393034279346466,-0.17477671802043915,-0.22026655077934265
1772739596425203000,8.710202880859375,-0.13168109953403473,-0.272938996553421,-0.1843535304069519
1772739596435240700,8.72024072265625,-0.13407529890537262,-0.2346317619085312,-0.06464344263076782
1772739596445304300,8.73030419921875,-0.05746084079146385,0,-0.090979665517807
1772739596455288000,8.7402880859375,-0.019153613597154617,0.10055647045373917,-0.11971008777618408
1772739596465928000,8.750927978515625,-0.009576806798577309,0.031124621629714966,-0.023942016065120697
1772739596475337700,8.760337646484375,-0.08858546614646912,-0.18914192914962769,-0.10773907601833344
1772739596487877600,8.772877685546876,-0.05746084079146385,-0.08619125932455063,-0.09576806426048279
1772739596515476000,8.80047607421875,-0.05506663769483566,0.090979665517807,-0.047884032130241394
1772739596525531100,8.81053125,0.10055647045373917,0.09816227108240128,0.13168109953403473
1772739596535520000,8.82052001953125,0.07900865375995636,0.2992752194404602,0.028730420395731926
1772739596545602000,8.83060205078125,0.014365210197865963,0.2513911724090576,0.047884032130241394
1772739596555624000,8.8406240234375,0,0.09816227108240128,0.09576806426048279
1772739596565682400,8.850682373046874,-0.09576806426048279,-0.033518824726343155,0.0454898327589035
1772739596575675600,8.860675537109374,-0.20111294090747833,-0.11971008777618408,-0.031124621629714966
1772739596586122000,8.8711220703125,-0.10055647045373917,0.047884032130241394,-0.15562310814857483
1772739596595736300,8.880736328125,-0.3711012601852417,-0.31364041566848755,-0.1628057211637497
1772739596626432300,8.911432373046875,-0.1843535304069519,0.06703764945268631,0.05027823522686958
1772739596635855600,8.920855712890624,-0.3974374830722809,-0.45489832758903503,-0.2537853717803955
1772739596647564500,8.932564453125,-0.45250412821769714,-0.6057330369949341,-0.2992752194404602
1772739596655918600,8.940918701171874,-0.47165772318840027,-0.9026140570640564,-0.2825157940387726
1772739596665952500,8.950952392578126,-0.5363011956214905,-1.158793568611145,-0.10295066982507706
1772739596675965700,8.960965576171875,-0.5913678407669067,-1.1540051698684692,-0.12928688526153564
1772739596686014000,8.971013916015625,-0.4812345504760742,-0.6488286852836609,-0.24899697303771973
1772739596695995100,8.9809951171875,-0.3998316824436188,-0.3208230137825012,-0.20111294090747833
1772739596706344000,8.991343994140625,-0.20350714027881622,-0.09576806426048279,-0.2059013396501541
1772739596726096400,9.011096435546875,-0.014365210197865963,0.043095629662275314,-0.15322890877723694
1772739596736094700,9.0210947265625,-0.19153612852096558,-0.26575639843940735,-0.12449848651885986
1772739596746176300,9.03117626953125,-0.22266076505184174,-0.5219359993934631,-0.05985504388809204
1772739596756241200,9.0412412109375,-0.5051765441894531,-0.7637503147125244,-0.1604115068912506
1772739596766298400,9.05129833984375,-0.49320554733276367,-0.9433154463768005,-0.06464344263076782
1772739596776282000,9.0612822265625,-0.545877993106842,-1.137245774269104,-0.12210428714752197
1772739596786933800,9.071933837890626,-0.5339069962501526,-0.9050082564353943,-0.090979665517807
1772739596796329500,9.08132958984375,-0.3902548849582672,-0.6775590777397156,-0.11013327538967133
1772739596826430000,9.111429931640625,0.043095629662275314,0.1364694982767105,-0.08379705995321274
1772739596836469200,9.12146923828125,0.014365210197865963,0.16998831927776337,-0.019153613597154617
1772739596846526500,9.1315263671875,-0.016759412363171577,0.10055647045373917,0.004788403399288654
1772739596856519400,9.14151953125,-0.038307227194309235,0.07900865375995636,0.0071826050989329815
1772739596866569700,9.15156982421875,-0.0694318488240242,-0.043095629662275314,0.038307227194309235
1772739596876596700,9.1615966796875,-0.17717093229293823,-0.07422025501728058,-0.0933738648891449
1772739596886669300,9.17166943359375,-0.07182604819536209,-0.22266076505184174,-0.009576806798577309
1772739596896673800,9.181673828125,-0.11252748221158981,-0.09816227108240128,0.031124621629714966
1772739596907137300,9.19213720703125,-0.19153612852096558,-0.09816227108240128,-0.011971008032560349
1772739596926815500,9.2118154296875,-0.033518824726343155,-0.031124621629714966,-0.021547814831137657
1772739596936840400,9.22184033203125,-0.15801730751991272,0.009576806798577309,0.026336219161748886
1772739596947512800,9.232512939453125,-0.14604631066322327,-0.0454898327589035,-0.019153613597154617
1772739596956922600,9.241922607421875,-0.10534487664699554,0.05027823522686958,-0.07900865375995636
1772739596968588500,9.253588623046875,-0.004788403399288654,0.1604115068912506,-0.08140286058187485
1772739596977018000,9.26201806640625,-0.06703764945268631,0.08379705995321274,-0.019153613597154617
1772739596987089000,9.2720888671875,-0.08619125932455063,0.1388636976480484,0.047884032130241394
1772739596997098000,9.282097900390625,-0.1412578970193863,-0.009576806798577309,-0.011971008032560349
1772739597017198600,9.302198486328125,-0.14844051003456116,-0.1149216815829277,-0.011971008032560349
1772739597027299000,9.312299072265626,-0.1364694982767105,-0.304063618183136,0.021547814831137657
1772739597047402800,9.33240283203125,-0.06224924325942993,-0.15083470940589905,0.15322890877723694
1772739597057442000,9.342442138671874,-0.0933738648891449,0.10055647045373917,0.05746084079146385
1772739597067530800,9.35253076171875,-0.06464344263076782,0.0933738648891449,0.11252748221158981
1772739597077559600,9.3625595703125,-0.05267243832349777,0.10534487664699554,-0.040701430290937424
1772739597087635000,9.372635009765625,0.07422025501728058,0.15562310814857483,0.040701430290937424
1772739597097680100,9.38268017578125,0.011971008032560349,0.23702596127986908,0.07661445438861847
1772739597108693200,9.393693359375,0.07422025501728058,0.40940847992897034,0.023942016065120697
1772739597117808000,9.40280810546875,0.10055647045373917,0.4381389021873474,0.0694318488240242
1772739597130372600,9.41537255859375,0.05985504388809204,0.23942017555236816,0.10055647045373917
1772739597137967600,9.422967529296875,0.06464344263076782,0.12449848651885986,0.07900865375995636
1772739597148048400,9.43304833984375,0.014365210197865963,0.09816227108240128,0.0694318488240242
1772739597168144400,9.453144287109374,-0.011971008032560349,0.011971008032560349,0.07182604819536209
1772739597178188800,9.463188720703124,0.021547814831137657,0.14844051003456116,0.05267243832349777
1772739597188274200,9.473274169921876,0.016759412363171577,0.10773907601833344,0.08619125932455063
1772739597198314000,9.48331396484375,-0.07182604819536209,0.0454898327589035,0.07900865375995636
1772739597208706600,9.49370654296875,-0.13407529890537262,-0.19632454216480255,0.033518824726343155
1772739597218426600,9.503426513671876,-0.0933738648891449,-0.08379705995321274,0.019153613597154617
1772739597248651800,9.53365185546875,-0.14604631066322327,-0.019153613597154617,0.0933738648891449
1772739597258661600,9.54366162109375,-0.16519992053508759,-0.035913024097681046,0.1149216815829277
1772739597269327000,9.5543271484375,-0.1173158809542656,-0.14844051003456116,0.1604115068912506
1772739597278717000,9.563717041015625,-0.08619125932455063,-0.06703764945268631,0.09576806426048279
1772739597290390000,9.57539013671875,-0.0933738648891449,-0.031124621629714966,0.10295066982507706
1772739597298778600,9.583778564453125,-0.05027823522686958,0.009576806798577309,0.09816227108240128
1772739597309149400,9.5941494140625,-0.12689268589019775,-0.009576806798577309,0.12449848651885986
1772739597318839300,9.60383935546875,-0.12689268589019775,-0.035913024097681046,0.13168109953403473
1772739597328877800,9.6138779296875,-0.06224924325942993,-0.0454898327589035,0.1173158809542656
1772739597348956200,9.6339560546875,-0.10534487664699554,0.035913024097681046,0.05746084079146385
1772739597358971400,9.643971435546876,-0.0454898327589035,0.033518824726343155,0.0071826050989329815
1772739597369018000,9.65401806640625,-0.023942016065120697,0.031124621629714966,0.08379705995321274
1772739597379039200,9.664039306640625,-0.0694318488240242,0.11013327538967133,0.047884032130241394
1772739597389101300,9.674101318359375,-0.05985504388809204,0.05027823522686958,0.05985504388809204
1772739597399106000,9.68410595703125,-0.10055647045373917,0.002394201699644327,0.12689268589019775
1772739597409467600,9.694467529296874,-0.07900865375995636,-0.011971008032560349,0.0933738648891449
1772739597419165000,9.7041650390625,-0.11971008777618408,-0.004788403399288654,0.16759411990642548
1772739597429828600,9.71482861328125,-0.1364694982767105,0.047884032130241394,0.07182604819536209
1772739597451739000,9.73673876953125,-0.1173158809542656,0.07900865375995636,0
1772739597469383700,9.7543837890625,-0.0694318488240242,0.023942016065120697,0.038307227194309235
1772739597479387000,9.764386962890624,-0.10055647045373917,-0.009576806798577309,-0.028730420395731926
1772739597489430500,9.774430419921876,-0.035913024097681046,0.08619125932455063,0.07182604819536209
1772739597499443500,9.784443359375,-0.07182604819536209,0.035913024097681046,0.07661445438861847
1772739597509832200,9.794832275390625,-0.06703764945268631,0.009576806798577309,0.0454898327589035
1772739597521575200,9.8065751953125,-0.08858546614646912,0.026336219161748886,0.1173158809542656
1772739597531623200,9.816623046875,-0.023942016065120697,-0.10773907601833344,0.07661445438861847
1772739597551703600,9.83670361328125,-0.14365209639072418,-0.1173158809542656,0.016759412363171577
1772739597561691000,9.84669091796875,-0.17956513166427612,-0.17717093229293823,0.05027823522686958
1772739597571722000,9.856721923828125,-0.1843535304069519,-0.11013327538967133,-0.019153613597154617
1772739597581721300,9.866721435546875,-0.15083470940589905,-0.08140286058187485,0.13168109953403473
1772739597592381400,9.87738134765625,-0.11971008777618408,-0.0694318488240242,0.09576806426048279
1772739597601778700,9.88677880859375,-0.11971008777618408,-0.1388636976480484,0.06224924325942993
1772739597613719300,9.89871923828125,-0.1604115068912506,-0.08858546614646912,0.1173158809542656
1772739597621857300,9.906857177734375,-0.16998831927776337,-0.24181437492370605,0.05746084079146385
1772739597631911200,9.9169111328125,-0.19632454216480255,-0.19153612852096558,0.1628057211637497
1772739597651960300,9.936960205078124,-0.16759411990642548,-0.16998831927776337,-0.004788403399288654
1772739597661965600,9.946965576171875,-0.12210428714752197,-0.021547814831137657,0.07182604819536209
1772739597672014000,9.95701416015625,0,0.0933738648891449,-0.08858546614646912
1772739597682001200,9.967001220703125,-0.043095629662275314,0.05267243832349777,0.0933738648891449
1772739597692031700,9.97703173828125,-0.08619125932455063,0.12449848651885986,0.0454898327589035
1772739597702047200,9.987047119140625,-0.05506663769483566,0.11013327538967133,0.0071826050989329815
1772739597712407300,9.9974072265625,-0.05985504388809204,0.12928688526153564,0.011971008032560349
1772739597722095600,10.007095703125,-0.05985504388809204,0.15801730751991272,0.1149216815829277
1772739597732131800,10.0171318359375,-0.038307227194309235,0.08140286058187485,0.040701430290937424
1772739597742134300,10.02713427734375,-0.11013327538967133,0.021547814831137657,0.026336219161748886
1772739597752794000,10.037794189453125,-0.08140286058187485,-0.040701430290937424,0.05027823522686958
1772739597762187500,10.0471875,-0.15562310814857483,-0.05985504388809204,-0.011971008032560349
1772739597774704600,10.05970458984375,-0.090979665517807,-0.035913024097681046,0.004788403399288654
1772739597792312600,10.0773125,-0.10773907601833344,0.08858546614646912,0.019153613597154617
1772739597802307800,10.087307861328124,-0.035913024097681046,0.090979665517807,0.08140286058187485
1772739597812658400,10.097658447265625,-0.10534487664699554,0.026336219161748886,0.021547814831137657
1772739597822358500,10.107358642578125,0.002394201699644327,0,0.040701430290937424
1772739597832404200,10.117404296875,-0.09816227108240128,0.009576806798577309,-0.023942016065120697
1772739597842399500,10.1273994140625,-0.05985504388809204,-0.004788403399288654,-0.06224924325942993
1772739597862445800,10.14744580078125,-0.17477671802043915,-0.08858546614646912,-0.0071826050989329815
1772739597872495000,10.1574951171875,-0.1364694982767105,-0.019153613597154617,-0.040701430290937424
1772739597882481400,10.1674814453125,-0.1412578970193863,-0.031124621629714966,-0.05267243832349777
1772739597892521000,10.17752099609375,-0.05027823522686958,0,0.014365210197865963
1772739597902646300,10.187646240234375,-0.09816227108240128,0.033518824726343155,0.009576806798577309
1772739597913497000,10.1984970703125,-0.1364694982767105,0.033518824726343155,0.10295066982507706
1772739597922588700,10.207588623046876,-0.13168109953403473,0.0694318488240242,0.1412578970193863
1772739597934257000,10.2192568359375,-0.028730420395731926,0.14844051003456116,-0.0071826050989329815
1772739597942650000,10.227650146484375,-0.05506663769483566,0.10773907601833344,0.05267243832349777
1772739597952706300,10.237706298828124,-0.043095629662275314,-0.004788403399288654,0.10055647045373917
1772739597972727300,10.257727294921875,-0.12210428714752197,-0.0071826050989329815,0
1772739597982731300,10.267731201171875,-0.10055647045373917,0.016759412363171577,0
1772739597992792300,10.277792236328125,-0.16759411990642548,0.011971008032560349,0.035913024097681046
1772739598002788600,10.28778857421875,-0.09576806426048279,0.07661445438861847,0.016759412363171577
1772739598013128200,10.298128173828125,-0.08140286058187485,0.021547814831137657,0.06224924325942993
1772739598022822100,10.307822265625,-0.17956513166427612,0.1604115068912506,0.05985504388809204
1772739598032874000,10.3178740234375,-0.08379705995321274,0.09816227108240128,0.004788403399288654
1772739598042885400,10.327885498046875,-0.019153613597154617,0.026336219161748886,0.038307227194309235
1772739598052922000,10.337922119140625,-0.12210428714752197,-0.021547814831137657,0.021547814831137657
1772739598073604400,10.358604248046875,-0.17238251864910126,0.023942016065120697,-0.004788403399288654
1772739598083004200,10.368004150390625,-0.07422025501728058,0.019153613597154617,0.043095629662275314
1772739598095518200,10.380518310546876,-0.13407529890537262,0.08379705995321274,0.011971008032560349
1772739598103091200,10.38809130859375,-0.047884032130241394,-0.021547814831137657,0.040701430290937424
1772739598113462800,10.398462890625,-0.10295066982507706,-0.047884032130241394,0.040701430290937424
1772739598123155200,10.4081552734375,-0.09816227108240128,0,-0.0694318488240242
1772739598133196000,10.418196044921874,-0.08379705995321274,0.10534487664699554,-0.033518824726343155
1772739598143228000,10.428227783203125,-0.05746084079146385,0.17238251864910126,-0.05985504388809204
1772739598153270800,10.438270751953125,-0.181959331035614,0.07182604819536209,0.023942016065120697
1772739598163275000,10.44827490234375,-0.14604631066322327,-0.019153613597154617,0.07661445438861847
1772739598173318700,10.458318603515625,-0.14365209639072418,0.026336219161748886,0.07422025501728058
1772739598183341800,10.468341796875,-0.14604631066322327,-0.0933738648891449,0.023942016065120697
1772739598193401900,10.47840185546875,-0.090979665517807,-0.10055647045373917,-0.035913024097681046
1772739598203392500,10.488392578125,-0.07182604819536209,0.002394201699644327,-0.009576806798577309
1772739598213746000,10.498745849609374,-0.13168109953403473,0.021547814831137657,-0.10055647045373917
1772739598223445200,10.5084453125,-0.05985504388809204,0.05027823522686958,-0.08858546614646912
1772739598234111200,10.519111328125,-0.1364694982767105,0.09576806426048279,0.009576806798577309
1772739598243511000,10.528510986328126,-0.08858546614646912,0.10295066982507706,-0.10295066982507706
1772739598255142100,10.54014208984375,-0.0694318488240242,0.10773907601833344,-0.011971008032560349
1772739598263572500,10.548572509765625,-0.08858546614646912,0.043095629662275314,-0.019153613597154617
1772739598283627800,10.568627685546875,-0.06224924325942993,0.08140286058187485,0.0694318488240242
1772739598293670400,10.57867041015625,-0.05506663769483566,0.13407529890537262,-0.06703764945268631
1772739598303681300,10.588681396484375,-0.15562310814857483,0.06464344263076782,0.035913024097681046
1772739598314055700,10.5990556640625,-0.09816227108240128,0.011971008032560349,0.002394201699644327
1772739598323759900,10.608759765625,-0.16519992053508759,-0.004788403399288654,0.047884032130241394
1772739598333803500,10.618803466796875,-0.09576806426048279,-0.0454898327589035,0.035913024097681046
1772739598343823600,10.62882373046875,-0.1843535304069519,-0.10295066982507706,0.009576806798577309
1772739598353877500,10.63887744140625,-0.11971008777618408,-0.05746084079146385,0.014365210197865963
1772739598363872000,10.6488720703125,-0.07661445438861847,-0.035913024097681046,0.0454898327589035
1772739598373925400,10.65892529296875,-0.17238251864910126,-0.031124621629714966,0.038307227194309235
1772739598383935700,10.668935791015626,-0.17238251864910126,-0.014365210197865963,-0.05267243832349777
1772739598394604500,10.6796044921875,-0.1388636976480484,0.08379705995321274,0.0454898327589035
1772739598403996000,10.688995849609375,-0.12449848651885986,0.08619125932455063,-0.016759412363171577
1772739598416849000,10.701848876953125,-0.08858546614646912,0.05746084079146385,-0.031124621629714966
1772739598434132200,10.71913232421875,-0.09576806426048279,0.12449848651885986,0.1412578970193863
1772739598444148000,10.72914794921875,-0.1412578970193863,0.090979665517807,0.07661445438861847
1772739598454210300,10.739210205078125,-0.17238251864910126,0.05027823522686958,0.05267243832349777
1772739598464223000,10.749222900390626,-0.21787235140800476,-0.002394201699644327,0.0454898327589035
1772739598494379500,10.779379638671875,-0.15083470940589905,-0.09816227108240128,-0.043095629662275314
1772739598504380000,10.7893798828125,-0.181959331035614,-0.014365210197865963,0
1772739598514774800,10.79977490234375,-0.20111294090747833,-0.040701430290937424,0.08379705995321274
1772739598524481000,10.80948095703125,-0.12449848651885986,0.014365210197865963,-0.011971008032560349
1772739598534546000,10.8195458984375,-0.11252748221158981,-0.002394201699644327,0.033518824726343155
1772739598544567300,10.8295673828125,-0.1173158809542656,-0.016759412363171577,0.08140286058187485
1772739598555262700,10.8402626953125,-0.2059013396501541,-0.09576806426048279,0.05267243832349777
1772739598564656400,10.849656494140625,-0.2298433631658554,-0.22026655077934265,0.011971008032560349
1772739598584736000,10.869736083984375,-0.31364041566848755,-0.3471592366695404,-0.019153613597154617
1772739598594813700,10.879813720703124,-0.2753331959247589,-0.24420857429504395,-0.07182604819536209
1772739598604818000,10.88981787109375,-0.2537853717803955,-0.12210428714752197,-0.033518824726343155
1772739598615199500,10.900199462890624,-0.19153612852096558,-0.0454898327589035,-0.035913024097681046
1772739598624887000,10.909886962890624,-0.1364694982767105,0.0694318488240242,-0.031124621629714966
1772739598634956000,10.9199560546875,-0.090979665517807,0.15083470940589905,0.002394201699644327
1772739598644967700,10.9299677734375,-0.002394201699644327,0.12689268589019775,-0.031124621629714966
1772739598655012600,10.9400126953125,-0.014365210197865963,0.1173158809542656,-0.07422025501728058
1772739598665028400,10.9500283203125,-0.17477671802043915,0.1604115068912506,0.023942016065120697
1772739598675087000,10.960087158203125,-0.11971008777618408,-0.016759412363171577,0.06464344263076782
1772739598695120400,10.980120361328124,-0.1867477297782898,-0.15322890877723694,-0.09576806426048279
1772739598705132500,10.990132568359375,-0.2537853717803955,-0.23702596127986908,-0.0933738648891449
1772739598716115200,11.001115234375,-0.23942017555236816,-0.19871874153614044,-0.023942016065120697
1772739598725192000,11.01019189453125,-0.2513911724090576,-0.15083470940589905,-0.014365210197865963
1772739598737698800,11.02269873046875,-0.1843535304069519,-0.10773907601833344,-0.05746084079146385
1772739598745245700,11.03024560546875,-0.15083470940589905,-0.05506663769483566,-0.0071826050989329815
1772739598755295000,11.040294921875,-0.15801730751991272,0.033518824726343155,0.004788403399288654
1772739598765290000,11.0502900390625,-0.15322890877723694,-0.028730420395731926,0.014365210197865963
1772739598775318300,11.060318359375,-0.1867477297782898,0.181959331035614,0.10534487664699554
1772739598785330200,11.070330078125,-0.047884032130241394,0.1173158809542656,0.05027823522686958
1772739598805376000,11.0903759765625,-0.1628057211637497,-0.0071826050989329815,0.07900865375995636
1772739598815734800,11.10073486328125,-0.10534487664699554,-0.019153613597154617,-0.026336219161748886
1772739598825425000,11.1104248046875,-0.15322890877723694,-0.002394201699644327,0.021547814831137657
1772739598835471000,11.12047119140625,-0.19153612852096558,-0.009576806798577309,-0.031124621629714966
1772739598845481500,11.1304814453125,-0.1149216815829277,0,0.002394201699644327
1772739598855516400,11.140516357421875,-0.026336219161748886,0.06224924325942993,0.016759412363171577
1772739598865526500,11.150526611328125,0.035913024097681046,0.16519992053508759,0.028730420395731926
1772739598876178700,11.1611787109375,0.033518824726343155,-0.0933738648891449,0.07661445438861847
1772739598885563400,11.1705634765625,0.181959331035614,-0.06224924325942993,0.0694318488240242
1772739598905635000,11.190635009765625,-0.090979665517807,0.07422025501728058,-0.07661445438861847
1772739598915998500,11.20099853515625,-0.06224924325942993,0.3495534360408783,-0.0454898327589035
1772739598925678000,11.210677978515625,-0.08379705995321274,0.13168109953403473,0.12210428714752197
1772739598935708700,11.220708740234375,-0.1364694982767105,0.12210428714752197,0.07422025501728058
1772739598945708800,11.230708740234375,-0.1149216815829277,0.29209262132644653,-0.0454898327589035
1772739598955768600,11.2407685546875,-0.1867477297782898,0.28730419278144836,0.021547814831137657
1772739598965753300,11.25075341796875,-0.28969839215278625,0.33518823981285095,-0.07900865375995636
1772739598975778800,11.26077880859375,-0.21787235140800476,0.2298433631658554,-0.14604631066322327
1772739598985772000,11.27077197265625,-0.1364694982767105,0.1149216815829277,-0.035913024097681046
1772739598995810000,11.28081005859375,-0.14604631066322327,0.07422025501728058,-0.07661445438861847
1772739599016138500,11.301138427734376,-0.13168109953403473,-0.09576806426048279,-0.038307227194309235
1772739599025844000,11.310843994140624,-0.12210428714752197,0.019153613597154617,0.004788403399288654
1772739599036538000,11.3215380859375,-0.08379705995321274,0.09576806426048279,-0.021547814831137657
1772739599046350300,11.331350341796876,-0.033518824726343155,0.1867477297782898,0.07900865375995636
1772739599058514700,11.3435146484375,0,0.23942017555236816,0.047884032130241394
1772739599066054100,11.35105419921875,0.021547814831137657,0.15322890877723694,0.1412578970193863
1772739599076106200,11.361106201171875,-0.040701430290937424,0.016759412363171577,0.040701430290937424
1772739599086103600,11.371103515625,-0.13407529890537262,0.090979665517807,0.1364694982767105
1772739599096185300,11.381185302734375,-0.09576806426048279,0.002394201699644327,-0.016759412363171577
1772739599106207000,11.39120703125,-0.004788403399288654,0.0454898327589035,-0.023942016065120697
1772739599126305800,11.411305908203126,-0.05027823522686958,0.17956513166427612,-0.023942016065120697
1772739599136380400,11.42138037109375,-0.035913024097681046,0.15083470940589905,-0.014365210197865963
1772739599146392300,11.431392333984375,-0.09816227108240128,0.14844051003456116,0.002394201699644327
1772739599156488400,11.441488525390625,-0.07182604819536209,0.2346317619085312,0.019153613597154617
1772739599166481400,11.4514814453125,-0.08619125932455063,0.15083470940589905,-0.0071826050989329815
1772739599176562000,11.46156201171875,-0.13407529890537262,0.19153612852096558,0.06703764945268631
1772739599186578700,11.47157861328125,-0.047884032130241394,0.13168109953403473,0.08619125932455063
1772739599197276000,11.48227587890625,-0.13407529890537262,0.12689268589019775,0.026336219161748886
1772739599206673400,11.49167333984375,-0.1412578970193863,0.0694318488240242,-0.009576806798577309
1772739599218697200,11.503697265625,-0.14365209639072418,0.023942016065120697,0.014365210197865963
1772739599236883500,11.521883544921875,-0.12449848651885986,0.14604631066322327,0.002394201699644327
1772739599246924800,11.5319248046875,-0.19632454216480255,0.07900865375995636,0.021547814831137657
1772739599257108700,11.542108642578125,-0.033518824726343155,0.040701430290937424,0.08858546614646912
1772739599266997200,11.551997314453125,-0.1364694982767105,-0.08619125932455063,0.06703764945268631
1772739599277052400,11.562052490234375,-0.11013327538967133,-0.11013327538967133,-0.011971008032560349
1772739599287091500,11.572091552734374,-0.10055647045373917,-0.08379705995321274,-0.009576806798577309
1772739599297157600,11.58215771484375,-0.22266076505184174,-0.05985504388809204,0.05985504388809204
1772739599307166500,11.59216650390625,-0.1173158809542656,0.035913024097681046,-0.05506663769483566
1772739599317532400,11.602532470703125,-0.08379705995321274,0.0454898327589035,-0.023942016065120697
1772739599337349000,11.62234912109375,-0.10773907601833344,0.09816227108240128,0.033518824726343155
1772739599347370500,11.63237060546875,-0.035913024097681046,0.1628057211637497,0.047884032130241394
1772739599358017300,11.643017333984375,-0.06224924325942993,0.14604631066322327,0.06224924325942993
1772739599367420400,11.65242041015625,-0.11252748221158981,0.08140286058187485,0.07422025501728058
1772739599379979300,11.664979248046874,-0.09816227108240128,0.038307227194309235,0.028730420395731926
1772739599387511600,11.672511474609376,-0.11252748221158981,0.028730420395731926,0.07182604819536209
1772739599397537800,11.682537841796876,-0.14365209639072418,0.09576806426048279,0.1149216815829277
1772739599407535000,11.69253515625,-0.035913024097681046,0.06464344263076782,-0.026336219161748886
1772739599417906200,11.70290625,-0.08858546614646912,0.08858546614646912,0.06464344263076782
1772739599437607000,11.72260693359375,-0.17477671802043915,-0.05027823522686958,0.004788403399288654
1772739599447607300,11.732607177734375,-0.17238251864910126,-0.0071826050989329815,0.019153613597154617
1772739599457665800,11.742665771484376,-0.13168109953403473,-0.035913024097681046,0.016759412363171577
1772739599467684000,11.75268408203125,-0.17477671802043915,-0.08379705995321274,0.033518824726343155
1772739599477742000,11.7627421875,-0.14604631066322327,-0.13168109953403473,0.0071826050989329815
1772739599487767000,11.77276708984375,-0.2346317619085312,-0.15083470940589905,-0.028730420395731926
1772739599497848000,11.78284814453125,-0.15801730751991272,-0.17956513166427612,0.009576806798577309
1772739599507858000,11.79285791015625,-0.17956513166427612,-0.09816227108240128,0.047884032130241394
1772739599518834400,11.80383447265625,-0.15322890877723694,-0.004788403399288654,0.009576806798577309
1772739599548057600,11.8330576171875,-0.12210428714752197,-0.016759412363171577,0.021547814831137657
1772739599558110000,11.84310986328125,-0.16519992053508759,-0.031124621629714966,-0.05985504388809204
1772739599568134400,11.853134521484375,-0.043095629662275314,0.10534487664699554,-0.08379705995321274
1772739599578209800,11.863209716796876,-0.0454898327589035,0.043095629662275314,-0.043095629662275314
1772739599588213000,11.873212890625,-0.10055647045373917,0.05985504388809204,-0.009576806798577309
1772739599598260200,11.88326025390625,-0.12210428714752197,0.08140286058187485,-0.043095629662275314
1772739599608294700,11.893294677734374,-0.0694318488240242,0.004788403399288654,-0.004788403399288654
1772739599618674400,11.90367431640625,-0.24420857429504395,0.047884032130241394,-0.038307227194309235
1772739599628361700,11.91336181640625,-0.07182604819536209,-0.035913024097681046,-0.011971008032560349
1772739599658544000,11.943544189453124,-0.043095629662275314,0.09816227108240128,0.05746084079146385
1772739599668553000,11.953552978515624,-0.06224924325942993,0.023942016065120697,0.002394201699644327
1772739599679213300,11.96421337890625,-0.0694318488240242,-0.016759412363171577,-0.023942016065120697
1772739599688636200,11.97363623046875,-0.06703764945268631,-0.11013327538967133,0.05267243832349777
1772739599701187300,11.986187255859376,-0.24420857429504395,0.040701430290937424,0.040701430290937424
1772739599708747000,11.9937470703125,-0.20350714027881622,-0.06703764945268631,0.043095629662275314
1772739599719112400,12.004112548828125,-0.12689268589019775,-0.0454898327589035,0
1772739599728836400,12.01383642578125,-0.12928688526153564,-0.047884032130241394,-0.028730420395731926
1772739599748909300,12.033909423828124,-0.090979665517807,0.0071826050989329815,-0.0454898327589035
1772739599758962400,12.04396240234375,-0.10055647045373917,0.043095629662275314,-0.021547814831137657
1772739599768998000,12.053997802734376,-0.07182604819536209,-0.002394201699644327,-0.10295066982507706
1772739599779065300,12.0640654296875,-0.12210428714752197,-0.0071826050989329815,-0.05985504388809204
1772739599789072100,12.074072021484374,-0.16759411990642548,-0.016759412363171577,-0.0454898327589035
1772739599799120100,12.0841201171875,-0.15562310814857483,0.043095629662275314,-0.06703764945268631
1772739599809137400,12.094137451171875,-0.08140286058187485,0.07661445438861847,0.009576806798577309
1772739599819520000,12.10452001953125,-0.047884032130241394,0.040701430290937424,-0.021547814831137657
1772739599829214000,12.1142138671875,-0.038307227194309235,0.05746084079146385,0.021547814831137657
1772739599869397000,12.15439697265625,-0.07661445438861847,0.014365210197865963,0.08619125932455063
1772739599879452700,12.16445263671875,-0.1173158809542656,0.08858546614646912,0.019153613597154617
1772739599889472500,12.174472412109376,-0.16998831927776337,-0.0454898327589035,0.05027823522686958
1772739599899540000,12.1845400390625,-0.11971008777618408,0.011971008032560349,0.043095629662275314
1772739599909541400,12.194541259765625,-0.026336219161748886,0.26096799969673157,0.09576806426048279
1772739599919897600,12.204897705078125,-0.09576806426048279,0.033518824726343155,-0.08858546614646912
1772739599929607400,12.214607421875,0.004788403399288654,0.12210428714752197,0
1772739599949662700,12.234662841796874,-0.1173158809542656,0.035913024097681046,-0.011971008032560349
1772739599959713300,12.24471337890625,-0.06703764945268631,-0.031124621629714966,0.009576806798577309
1772739599969756200,12.254756103515625,-0.1604115068912506,-0.12689268589019775,0.0071826050989329815
1772739599979822600,12.264822509765626,-0.1364694982767105,0.011971008032560349,-0.023942016065120697
1772739599989822700,12.27482275390625,-0.1388636976480484,0.035913024097681046,-0.0071826050989329815
1772739600000476000,12.285475830078125,-0.12449848651885986,0.05267243832349777,-0.040701430290937424
1772739600009896200,12.294896240234374,0.023942016065120697,0.10773907601833344,-0.07900865375995636
1772739600022790400,12.307790283203126,0.004788403399288654,0.3208230137825012,-0.0454898327589035
1772739600030253300,12.31525341796875,0.05027823522686958,0.395043283700943,-0.07661445438861847
1772739600040056800,12.325056884765624,0.0071826050989329815,0.4429273009300232,-0.090979665517807
1772739600060194600,12.345194580078125,0.07900865375995636,0.5171475410461426,0.033518824726343155
1772739600070183000,12.355182861328124,0.15801730751991272,0.5889736413955688,0.10534487664699554
1772739600080248000,12.365248046875,0.028730420395731926,0.40222588181495667,0.035913024097681046
1772739600090265300,12.375265380859375,-0.019153613597154617,0.016759412363171577,0.028730420395731926
1772739600100361500,12.385361572265625,-0.17477671802043915,-0.26575639843940735,0.0933738648891449
1772739600110358500,12.395358642578126,-0.33518823981285095,-0.569819986820221,0.1867477297782898
1772739600120740000,12.405739990234375,-0.44532153010368347,-0.7541735172271729,0.14844051003456116
1772739600130449200,12.41544921875,-0.5363011956214905,-0.8810662031173706,0.0933738648891449
1772739600140553200,12.42555322265625,-0.304063618183136,-0.8164227604866028,0.10055647045373917
1772739600150548000,12.4355478515625,-0.047884032130241394,-0.5315127968788147,0.17956513166427612
1772739600182333000,12.4673330078125,-0.035913024097681046,-1.161187767982483,0.07661445438861847
1772739600190748000,12.475747802734375,-0.22744916379451752,-1.7764976024627686,0.27054479718208313
1772739600200815600,12.485815673828125,-0.15801730751991272,-2.1380221843719482,0.2585737705230713
1772739600210861300,12.495861328125,1.1540051698684692,-2.6791117191314697,1.2234370708465576
1772739600221249300,12.506249267578125,2.7437551021575928,-4.338293552398682,2.609679937362671
1772739600230956800,12.515956787109374,2.894589900970459,-6.7923502922058105,2.8371291160583496
1772739600241025300,12.526025390625,2.255337953567505,-9.703699111938477,3.004723072052002
1772739600251075800,12.536075927734375,0.21787235140800476,-11.070788383483887,3.399766445159912
1772739600281206800,12.566206787109374,-0.7637503147125244,-8.449137687683105,-2.9735984802246094
1772739600291205000,12.576205078125,-0.4812345504760742,-8.89685344696045,-3.248931646347046
1772739600301265200,12.58626513671875,-1.0797849893569946,-9.148244857788086,-1.5442601442337036
1772739600311244300,12.596244384765624,-2.011129379272461,-8.755595207214355,-0.6703764796257019
1772739600322186000,12.60718603515625,-2.6455929279327393,-8.08043098449707,-0.06703764945268631
1772739600331285800,12.61628564453125,-3.2561142444610596,-7.105990409851074,-0.37828385829925537
1772739600343802400,12.62880224609375,-3.184288263320923,-6.873753070831299,0.0454898327589035
1772739600351332600,12.63633251953125,-3.5242648124694824,-5.595249176025391,0.33518823981285095
1772739600361357800,12.64635791015625,-3.8953661918640137,-4.627991676330566,0.9002198576927185
1772739600391402800,12.67640283203125,-5.1810526847839355,-2.427720546722412,1.6041151285171509
1772739600401437400,12.6864375,-5.257667064666748,-2.056619167327881,1.944091796875
1772739600411459000,12.696458984375,-5.69580602645874,-1.048660397529602,1.5945383310317993
1772739600421817600,12.706817626953125,-5.48272180557251,-0.730231523513794,1.7357962131500244
1772739600431493600,12.71649365234375,-5.2480902671813965,-0.2346317619085312,1.5107412338256836
1772739600441519000,12.72651904296875,-5.027823448181152,0.47644615173339844,1.53707754611969
1772739600451546400,12.73654638671875,-5.171475887298584,0.768538773059845,1.4772224426269531
1772739600461587500,12.74658740234375,-4.632780075073242,1.37906014919281,1.656787633895874
1772739600471564000,12.75656396484375,-3.77565598487854,1.5514427423477173,1.9033904075622559
1772739600491607800,12.77660791015625,-1.7597382068634033,2.293645143508911,2.6455929279327393
1772739600503296300,12.788296142578124,-1.4389152526855469,3.2561142444610596,2.6360161304473877
1772739600511646000,12.79664599609375,-1.50355863571167,3.907337188720703,2.5258827209472656
1772739600521984300,12.806984375,-1.0271124839782715,4.225766181945801,2.3104045391082764
1772739600532737800,12.81773779296875,-0.7374141216278076,4.632780075073242,2.255337953567505
1772739600542805200,12.82780517578125,0.11013327538967133,5.200206279754639,2.0614075660705566
1772739600552775400,12.837775390625,0.6823474764823914,5.544970989227295,2.387019157409668
1772739600562793200,12.847793212890625,0.8523358106613159,5.963956356048584,2.63362193107605
1772739600572808200,12.85780810546875,1.235408067703247,5.853823184967041,2.942473888397217
1772739600592825900,12.877825927734374,1.5634137392044067,6.210559368133545,3.24414324760437
1772739600602841600,12.887841552734375,1.7908629179000854,6.677428722381592,3.6104562282562256
1772739600612844800,12.8978447265625,2.0685901641845703,6.677428722381592,4.4077253341674805
1772739600623182800,12.908182861328125,2.3367409706115723,6.361393928527832,4.747702121734619
1772739600632849700,12.917849609375,2.497152328491211,5.0469770431518555,5.458779811859131
1772739600643462100,12.928462158203125,3.098097085952759,3.7900211811065674,5.403713226318359
1772739600652863700,12.93786376953125,3.6080620288848877,1.7381904125213623,5.566518783569336
1772739600665380600,12.950380615234375,4.0749311447143555,1.5705963373184204,4.946420669555664
1772739600672888300,12.957888427734375,3.9264907836914062,1.278503656387329,4.69024133682251
1772739600682899000,12.96789892578125,3.464409828186035,1.3982137441635132,4.168305397033691
1772739600703017500,12.988017578125,2.889801502227783,-0.9481038451194763,4.144362926483154
1772739600712988700,12.99798876953125,2.6431987285614014,-1.7501614093780518,4.577713489532471
1772739600723324400,13.008324462890625,2.31758713722229,-1.5203180313110352,4.460397720336914
1772739600733035500,13.018035400390625,2.4229321479797363,-0.7589619159698486,4.764461517333984
1772739600743079200,13.0280791015625,2.1571757793426514,-0.047884032130241394,4.479551315307617
1772739600753053200,13.03805322265625,2.367865562438965,0.33758243918418884,4.3622355461120605
1772739600763072800,13.04807275390625,2.1140801906585693,0.14604631066322327,3.6152446269989014
1772739600773068000,13.058068115234375,1.8195933103561401,-0.22026655077934265,3.19865345954895
1772739600783112400,13.068112548828125,1.4987702369689941,-1.1635819673538208,2.5258827209472656
1772739600793100500,13.0781005859375,1.1851298809051514,-1.699883222579956,2.3750481605529785
1772739600813130000,13.0981298828125,0.8164227604866028,-1.5729905366897583,2.169146776199341
1772739600825068500,13.110068603515625,0.8906430602073669,-1.2545616626739502,1.98958158493042
1772739600833194200,13.1181943359375,0.9433154463768005,-1.1013327836990356,1.7262194156646729
1772739600843222800,13.128222900390625,1.659181833267212,-1.5921441316604614,1.05105459690094
1772739600853251600,13.13825146484375,2.2840683460235596,-2.432508945465088,0.26096799969673157
1772739600863292400,13.14829248046875,2.9017724990844727,-3.4572272300720215,-0.6272808313369751
1772739600873266700,13.1582666015625,3.095702886581421,-4.1395745277404785,-1.0606313943862915
1772739600883299800,13.1682998046875,2.829946517944336,-4.448426723480225,-1.2880805730819702
1772739600893314800,13.178314697265625,2.0183119773864746,-4.242525577545166,-1.37906014919281
1772739600913338400,13.19833837890625,-0.1843535304069519,-2.559401512145996,-1.1803414821624756
1772739600923672800,13.2086728515625,-0.5434837937355042,-2.0805611610412598,-0.9600749015808105
1772739600933380400,13.21838037109375,-0.8427590131759644,-1.8315643072128296,-0.9265560507774353
1772739600943423700,13.228423828125,-0.9457096457481384,-1.8363527059555054,-0.9792284965515137
1772739600953395500,13.2383955078125,-1.036689281463623,-1.5610195398330688,-1.1994950771331787
1772739600964024600,13.249024658203124,-1.800439715385437,-1.2425906658172607,-1.6160861253738403
1772739600973412900,13.258412841796876,-2.4420857429504395,-0.9888052940368652,-2.094926595687866
1772739600985923000,13.270923095703125,-2.9927520751953125,-1.2952631711959839,-2.410961151123047
1772739600993445000,13.278445068359375,-2.985569477081299,-1.5083470344543457,-2.801215887069702
1772739601003466000,13.288466064453125,-2.9017724990844727,-1.5849615335464478,-2.784456491470337
1772739601023828500,13.308828369140626,-1.9704279899597168,-0.6248866319656372,-2.561795711517334
1772739601033511400,13.318511474609375,-1.6424223184585571,0.1412578970193863,-2.4013843536376953
1772739601043542300,13.328542236328126,-1.3694833517074585,0.6727706789970398,-2.013523578643799
1772739601053554200,13.33855419921875,-1.1899182796478271,0.9002198576927185,-1.659181833267212
1772739601063602400,13.3486025390625,-1.1061211824417114,1.0007762908935547,-1.1803414821624756
1772739601073597700,13.35859765625,-0.9959878921508789,0.8379706144332886,-0.8906430602073669
1772739601083627800,13.368627685546874,-0.8403648138046265,0.7565677165985107,-0.507570743560791
1772739601093629200,13.378629150390625,-0.7829039692878723,0.4884171485900879,-0.1628057211637497
1772739601103677700,13.388677734375,-0.5937620401382446,0.608127236366272,0.1843535304069519
1772739601113651700,13.398651611328125,-0.4620809257030487,0.7206547260284424,0.3495534360408783
1772739601133700000,13.4187001953125,0.0454898327589035,1.1180921792984009,0.727837324142456
1772739601145380400,13.43038037109375,0.21787235140800476,1.3024457693099976,0.8810662031173706
1772739601153731800,13.43873193359375,0.2777273952960968,1.3407529592514038,0.7924807667732239
1772739601163734500,13.448734619140625,0.3495534360408783,1.0749965906143188,0.6823474764823914
1772739601173730800,13.458730712890626,0.8906430602073669,0.6200982332229614,-0.019153613597154617
1772739601183765800,13.468765869140626,1.2042834758758545,0.6129156351089478,-0.2968810200691223
1772739601193735700,13.478735595703125,1.173158884048462,0.8140285611152649,-0.3711012601852417
1772739601203754000,13.48875390625,1.0797849893569946,0.7733271718025208,-0.3878606855869293
1772739601213752800,13.4987529296875,0.8954314589500427,0.7469909191131592,-0.49559974670410156
1772739601224113400,13.509113525390624,0.49559974670410156,0.5841852426528931,-0.5913678407669067
1772739601253828000,13.538828125,0.21547815203666687,0.3926490843296051,-0.5291185975074768
1772739601263868400,13.548868408203125,-0.090979665517807,0.569819986820221,-0.22266076505184174
1772739601273854000,13.55885400390625,0.5889736413955688,0.4668693244457245,0.0071826050989329815
1772739601284500200,13.569500244140626,1.1204863786697388,0.2944868206977844,-0.002394201699644327
1772739601293905200,13.5789052734375,1.3551181554794312,0.9289502501487732,-0.05985504388809204
1772739601306427100,13.59142724609375,0.9648633003234863,1.2761094570159912,-0.05746084079146385
1772739601313966600,13.598966552734375,1.1899182796478271,1.460463047027588,0.011971008032560349
1772739601324321300,13.6093212890625,0.9864110946655273,1.2713210582733154,0.1412578970193863
1772739601354081300,13.639081298828126,0.3687070608139038,0.5099649429321289,0.11252748221158981
1772739601364120600,13.64912060546875,0.2992752194404602,0.2513911724090576,0.17956513166427612
1772739601374142200,13.65914208984375,0.3734954595565796,0.24660277366638184,0.16519992053508759
1772739601384205300,13.669205322265626,0.2968810200691223,0.40222588181495667,0.2346317619085312
1772739601394200300,13.679200439453124,0.33997663855552673,0.49799394607543945,0.3016694188117981
1772739601404235800,13.68923583984375,0.35434186458587646,0.47884035110473633,0.3423708379268646
1772739601414254300,13.69925439453125,0.3232172429561615,0.45250412821769714,0.36152446269989014
1772739601424621600,13.70962158203125,0.31124621629714966,0.3878606855869293,0.09816227108240128
1772739601434307800,13.719307861328126,0.08858546614646912,0.4213795065879822,-0.2346317619085312
1772739601444955400,13.729955322265624,-0.040701430290937424,0.2753331959247589,-0.17956513166427612
1772739601466043100,13.751043212890625,0.011971008032560349,0.38307225704193115,-0.24660277366638184
1772739601474459000,13.759458984375,0.19871874153614044,0.47644615173339844,-0.06464344263076782
1772739601484505600,13.769505615234374,0.035913024097681046,0.3208230137825012,0.026336219161748886
1772739601494528300,13.7795283203125,0.27054479718208313,0.05267243832349777,-0.002394201699644327
1772739601504587000,13.7895869140625,0.5027823448181152,-0.3280056416988373,0.07422025501728058
1772739601514589700,13.799589599609375,1.0534487962722778,-0.8259995579719543,-0.22026655077934265
1772739601524945000,13.80994482421875,1.5418659448623657,-1.1061211824417114,-0.4381389021873474
1772739601544769000,13.82976904296875,0.6943184733390808,-0.5626373887062073,-0.26336219906806946
1772739601554879000,13.83987890625,-0.4692635238170624,0.5554547905921936,-0.7158663272857666
1772739601584923100,13.869923095703125,0.950498104095459,2.032677173614502,0.47165772318840027
1772739601605614300,13.8906142578125,-0.7134721279144287,2.6886885166168213,1.1180921792984009
1772739601627933700,13.91293359375,-0.993593692779541,1.742978811264038,0.7445967197418213
1772739601635498800,13.920498779296874,-0.43335050344467163,1.4484920501708984,0.2849099934101105
1772739601645202200,13.9302021484375,-0.4620809257030487,1.8124107122421265,-0.08140286058187485
1772739601665344500,13.950344482421874,-0.3902548849582672,1.3120225667953491,0.06464344263076782
1772739601675353000,13.96035302734375,0.33997663855552673,-0.9481038451194763,0.47884035110473633
1772739601685406500,13.970406494140626,0.5554547905921936,-1.1683704853057861,0.43095630407333374
1772739601695440000,13.98043994140625,0.6967126727104187,-0.6727706789970398,0.33997663855552673
1772739601705514800,13.9905146484375,0.871489405632019,-0.6224924325942993,0.3902548849582672
1772739601715518000,14.00051806640625,0.9840168952941895,-0.6727706789970398,0.4405331015586853
1772739601725879300,14.01087939453125,0.9217676520347595,-1.0414776802062988,0.16998831927776337
1772739601735598600,14.0205986328125,0.33279404044151306,-1.4867992401123047,-0.24899697303771973
1772739601745667300,14.030667236328124,-0.3758896589279175,-1.6089035272598267,-0.48602294921875
1772739601755683600,14.04068359375,-1.2737152576446533,-1.5394717454910278,-0.6248866319656372
1772739601775765000,14.060764892578124,-1.7334020137786865,-0.9313444495201111,-0.6224924325942993
1772739601787479800,14.072479736328125,-1.6519991159439087,-0.5889736413955688,-0.545877993106842
1772739601796085200,14.081085205078125,-1.6065093278884888,-0.8954314589500427,-0.6488286852836609
1772739601805885400,14.090885498046875,-1.4269442558288574,-0.9385270476341248,-0.5506663918495178
1772739601815914800,14.100914794921875,-1.235408067703247,-1.0079588890075684,-0.49559974670410156
1772739601826307300,14.111307373046875,-1.0199298858642578,-1.1348515748977661,-0.3208230137825012
1772739601835981300,14.120981201171874,-1.0223240852355957,-1.259350061416626,-0.2322375625371933
1772739601846052900,14.131052978515624,-0.9528923034667969,-1.216254472732544,-0.15322890877723694
1772739601856074800,14.14107470703125,-1.0031704902648926,-1.5466543436050415,-0.26096799969673157
1772739601866138000,14.15113818359375,-0.6584054827690125,-1.213860273361206,-0.2944868206977844
1772739601886305000,14.171304931640625,-0.28969839215278625,-1.0103530883789062,-0.15562310814857483
1772739601896200400,14.181200439453125,-0.5195417404174805,-1.0797849893569946,-0.23942017555236816
1772739601906232600,14.191232666015624,-0.5123591423034668,-0.7398083209991455,-0.3495534360408783
1772739601916234000,14.20123388671875,-0.5770025849342346,-0.3974374830722809,-0.35913026332855225
1772739601927204400,14.212204345703125,-0.11971008777618408,0.545877993106842,-0.47405192255973816
1772739601936281900,14.22128173828125,-0.08379705995321274,0.507570743560791,-0.4357447028160095
1772739601948803300,14.23380322265625,0,0.4141969084739685,-0.33039984107017517
1772739601956347100,14.24134716796875,-0.0694318488240242,-0.011971008032560349,-0.26815059781074524
1772739601976385800,14.2613857421875,-0.2992752194404602,-0.3495534360408783,-0.40222588181495667
1772739601986420000,14.271419921875,-0.3998316824436188,-0.17238251864910126,-0.5291185975074768
1772739601996426800,14.2814267578125,-0.5051765441894531,-0.26575639843940735,-0.47644615173339844
1772739602006481400,14.2914814453125,-0.4644751250743866,-0.24420857429504395,-0.21787235140800476
1772739602016480500,14.30148046875,-0.363918662071228,-0.17238251864910126,0.004788403399288654
1772739602026827000,14.311826904296876,-0.26575639843940735,0.1388636976480484,0.10773907601833344
1772739602036531000,14.321531005859375,-0.14604631066322327,0.19393034279346466,0.10534487664699554
1772739602046578700,14.33157861328125,-0.2298433631658554,0.040701430290937424,0.13168109953403473
1772739602056599300,14.341599365234375,-0.2561795711517334,0,0.0933738648891449
1772739602066634500,14.351634521484375,-0.3447650372982025,0.12689268589019775,0.13407529890537262
1772739602087315500,14.3723154296875,-0.5434837937355042,-0.10534487664699554,0.27054479718208313
1772739602096700400,14.381700439453125,-0.42377370595932007,-0.23702596127986908,0.45250412821769714
1772739602108331500,14.39333154296875,-0.38307225704193115,-0.2322375625371933,0.545877993106842
1772739602116734200,14.401734130859374,-0.17956513166427612,-0.12928688526153564,0.8212111592292786
1772739602127101400,14.412101318359374,-0.14604631066322327,-0.004788403399288654,0.9528923034667969
1772739602136781800,14.42178173828125,-0.21787235140800476,0.06703764945268631,1.0031704902648926
1772739602146803000,14.431802978515625,-0.2968810200691223,-0.009576806798577309,0.9792284965515137
1772739602156798700,14.441798828125,-0.7661445140838623,0.047884032130241394,0.8738836050033569
1772739602166855400,14.45185546875,-0.8355764150619507,0.24899697303771973,0.8403648138046265
1772739602186874400,14.471874267578125,-0.3926490843296051,0.5650315880775452,0.9672574996948242
1772739602196904700,14.48190478515625,-0.272938996553421,0.4596867263317108,0.8906430602073669
1772739602207000300,14.492000244140625,-0.11252748221158981,0.2585737705230713,0.7038952708244324
1772739602217020200,14.502020263671875,0.12928688526153564,0.12449848651885986,0.7086837291717529
1772739602227402800,14.51240283203125,0.2346317619085312,0.026336219161748886,0.5937620401382446
1772739602237146000,14.52214599609375,0.13168109953403473,-0.17477671802043915,0.42616790533065796
1772739602247831600,14.53283154296875,0.18914192914962769,-0.21308395266532898,0.10773907601833344
1772739602257246500,14.54224658203125,0.16519992053508759,0.023942016065120697,-0.023942016065120697
1772739602269798000,14.5547978515625,0.15562310814857483,0.23942017555236816,-0.2825157940387726
1772739602287446800,14.57244677734375,0.4165911078453064,0.40462008118629456,-0.6224924325942993
1772739602297470500,14.582470458984375,0.5315127968788147,0.47644615173339844,-0.7876923680305481
1772739602307535000,14.59253515625,0.6105214357376099,0.15801730751991272,-0.9361328482627869
1772739602317577200,14.6025771484375,0.3423708379268646,-0.09576806426048279,-1.0342950820922852
1772739602327974000,14.612973876953125,-0.14844051003456116,-0.47644615173339844,-1.194706678390503
1772739602337692200,14.622692138671875,-0.5410895943641663,-0.7709329724311829,-1.1013327836990356
1772739602347764500,14.632764404296875,-0.7589619159698486,-0.2513911724090576,-0.7422025203704834
1772739602357809200,14.64280908203125,-0.5913678407669067,0.4213795065879822,-0.4620809257030487
1772739602367888600,14.652888671875,-0.4405331015586853,0.5889736413955688,-0.3974374830722809
1772739602397925400,14.68292529296875,-0.1843535304069519,-0.2537853717803955,-0.040701430290937424
1772739602408581000,14.6935810546875,-0.42616790533065796,-0.689530074596405,0.14604631066322327
1772739602417965300,14.70296533203125,-1.5418659448623657,-0.07900865375995636,0.37828385829925537
1772739602429941500,14.71494140625,-0.950498104095459,-0.5195417404174805,0.43335050344467163
1772739602438020900,14.723020751953126,-1.1875240802764893,0.3471592366695404,0.06703764945268631
1772739602448067000,14.733067138671874,-0.7972691655158997,-0.08858546614646912,0.14365209639072418
1772739602458078500,14.743078369140624,-0.8355764150619507,-0.4381389021873474,-0.009576806798577309
1772739602468102400,14.753102294921876,-0.7948749661445618,-0.14844051003456116,-0.181959331035614
1772739602478120700,14.76312060546875,-0.6200982332229614,-0.06703764945268631,0.10295066982507706
1772739602498150700,14.783150634765626,-1.0534487962722778,-0.49559974670410156,-0.10534487664699554
1772739602508182000,14.79318212890625,-1.036689281463623,-0.9050082564353943,0.2585737705230713
1772739602518184700,14.803184814453125,-0.9385270476341248,-0.7134721279144287,0.5267243981361389
1772739602528547000,14.813547119140624,-0.40701428055763245,-1.170764684677124,0.6009446382522583
1772739602548291000,14.833291015625,-0.5650315880775452,-0.5003881454467773,0.4118026793003082
1772739602558280400,14.843280517578124,-0.7038952708244324,-0.3208230137825012,0.22744916379451752
1772739602568935000,14.853934814453124,-0.4644751250743866,-0.35673606395721436,0.6775590777397156
1772739602578306800,14.863306884765626,-0.811634361743927,0.5267243981361389,0.2968810200691223
1772739602590811600,14.875811767578124,-0.8379706144332886,0.4692635238170624,-0.22266076505184174
1772739602608392700,14.893392822265625,-0.7876923680305481,-0.0071826050989329815,0.40701428055763245
1772739602628715000,14.913715087890624,-0.42616790533065796,-0.07661445438861847,0.7086837291717529
1772739602638404000,14.923404052734375,0.17238251864910126,0.24420857429504395,0.9145850539207458
1772739602648458500,14.93345849609375,-0.4644751250743866,0.7709329724311829,-0.1867477297782898
1772739602658461000,14.9434609375,-1.0606313943862915,-1.9776105880737305,-2.8179752826690674
1772739602668497000,14.953496826171875,-0.3471592366695404,-0.6368576288223267,-0.3064578175544739
1772739602678502000,14.963501953125,-0.4429273009300232,-0.9983820915222168,-0.1843535304069519
1772739602688553500,14.973553466796876,-0.7374141216278076,-0.10055647045373917,-0.6584054827690125
1772739602698542300,14.983542236328125,-1.1851298809051514,0.5554547905921936,-1.3287819623947144
1772739602718595600,15.003595703125,-0.5913678407669067,0.24181437492370605,-0.2322375625371933
1772739602729569000,15.014569091796876,-0.7757213711738586,-0.019153613597154617,-0.31124621629714966
1772739602738660900,15.023660888671875,-0.706289529800415,-1.235408067703247,0.05985504388809204
1772739602750288000,15.035287841796874,-0.8954314589500427,-0.6033388376235962,-0.1867477297782898
1772739602758694000,15.04369384765625,-0.7326257228851318,-0.5099649429321289,-0.17956513166427612
1772739602768763000,15.053762939453126,-0.507570743560791,-0.608127236366272,0.047884032130241394
1772739602778746000,15.06374609375,-0.40222588181495667,-0.19393034279346466,-0.09816227108240128
1772739602788769800,15.073769775390625,-0.45250412821769714,-0.031124621629714966,-0.19153612852096558
1772739602798768400,15.083768310546875,-0.5722141861915588,-0.3016694188117981,-0.011971008032560349
1772739602829171500,15.11417138671875,-0.7086837291717529,0.08140286058187485,-0.181959331035614
