time,seconds_elapsed,z,y,x
1772739588334942500,0.6199423828125,-0.17837265133857727,-0.3933972120285034,-0.07696902006864548
1772739588344919300,0.629919189453125,0.019547687843441963,-1.2205088138580322,-0.6743952035903931
1772739588355618300,0.640618408203125,-0.14905111491680145,0.28588494658470154,0.48747047781944275
1772739588365617400,0.650617431640625,-0.09040805697441101,0.31154128909111023,0.4031710624694824
1772739588375993600,0.66099365234375,0,0.00855211354792118,-0.009773843921720982
1772739588385676800,0.6706767578125,0.006108652334660292,-0.0012217304902151227,-0.018325956538319588
1772739588395755300,0.68075537109375,0.013439035043120384,-0.01466076634824276,-0.00733038317412138
1772739588405783600,0.690783447265625,0.018325956538319588,-0.02076941914856434,0.012217304669320583
1772739588415851000,0.70085107421875,0.025656340643763542,-0.03298672288656235,0.03420845419168472
1772739588425879300,0.71087939453125,0.03176499158143997,-0.04398229718208313,0.04886921867728233
1772739588436572400,0.721572509765625,0.0354301854968071,-0.05253441259264946,0.059864792972803116
1772739588458524200,0.743524169921875,0.06108652427792549,-0.05864306539297104,0.06230825558304787
1772739588466092800,0.7510927734375,0.06841690838336945,-0.05864306539297104,0.06230825558304787
1772739588476491300,0.7614912109375,0.08185594528913498,-0.05253441259264946,0.0806342139840126
1772739588487230500,0.77223046875,0.08307767659425735,-0.06230825558304787,0.09407325088977814
1772739588497282300,0.7822822265625,0.07941248267889023,-0.06230825558304787,0.1062905490398407
1772739588507301400,0.79230126953125,0.07330382615327835,-0.06475171446800232,0.10995574295520782
1772739588517392400,0.802392333984375,0.06841690838336945,-0.06719517707824707,0.09896016865968704
1772739588527383600,0.812383544921875,0.06719517707824707,-0.06719517707824707,0.0806342139840126
1772739588537441300,0.822441162109375,0.06108652427792549,-0.06230825558304787,0.0659734457731247
1772739588547448000,0.832447998046875,0.05375614017248154,-0.05375614017248154,0.06963863968849182
1772739588577866000,0.862865966796875,0.021991148591041565,-0.0659734457731247,0.15271630883216858
1772739588587571700,0.87257177734375,0.009773843921720982,-0.05864306539297104,0.13561208546161652
1772739588598253800,0.88325390625,0.00366519158706069,-0.04398229718208313,0.09773843735456467
1772739588607631600,0.892631591796875,0.0012217304902151227,-0.03176499158143997,0.06475171446800232
1772739588619285000,0.904284912109375,-0.0012217304902151227,-0.02321287989616394,0.051312681287527084
1772739588627705000,0.912705078125,-0.00855211354792118,-0.028099801391363144,0.0403171069920063
1772739588637765000,0.92276513671875,-0.02321287989616394,-0.03420845419168472,0.03787364438176155
1772739588647753000,0.9327529296875,-0.03298672288656235,-0.0354301854968071,0.051312681287527084
1772739588678183700,0.96318359375,-0.0403171069920063,-0.04153883829712868,0.0708603709936142
1772739588687872000,0.9728720703125,-0.051312681287527084,-0.0403171069920063,0.05742133408784866
1772739588697911800,0.982911865234375,-0.051312681287527084,-0.02932153269648552,0.04153883829712868
1772739588707921200,0.992921142578125,-0.039095375686883926,-0.02076941914856434,0.009773843921720982
1772739588717979400,1.0029794921875,-0.039095375686883926,-0.015882495790719986,-0.004886921960860491
1772739588727973000,1.01297314453125,-0.039095375686883926,-0.010995574295520782,-0.01710422709584236
1772739588738012700,1.0230126953125,-0.0354301854968071,-0.010995574295520782,-0.012217304669320583
1772739588748018200,1.03301806640625,-0.03420845419168472,-0.01466076634824276,-0.004886921960860491
1772739588758686000,1.04368603515625,-0.0354301854968071,-0.012217304669320583,-0.0012217304902151227
1772739588788424200,1.073424072265625,-0.02321287989616394,0.012217304669320583,-0.00733038317412138
1772739588798232300,1.083232421875,-0.019547687843441963,0.009773843921720982,-0.01710422709584236
1772739588808252000,1.093251953125,-0.02321287989616394,0.009773843921720982,-0.024434609338641167
1772739588818289400,1.103289306640625,-0.024434609338641167,0.01466076634824276,-0.018325956538319588
1772739588828294700,1.113294677734375,-0.013439035043120384,0.015882495790719986,-0.012217304669320583
1772739588838346000,1.123345947265625,0.00733038317412138,0.018325956538319588,0.00366519158706069
1772739588848337000,1.1333369140625,0.018325956538319588,0.01710422709584236,0.024434609338641167
1772739588858365400,1.143365478515625,0.02932153269648552,0.015882495790719986,0.03298672288656235
1772739588868381700,1.153381591796875,0.03176499158143997,0.012217304669320583,0.015882495790719986
1772739588898456800,1.183456787109375,0.04642575979232788,0.04764748737215996,-0.019547687843441963
1772739588908458800,1.193458740234375,0.04764748737215996,0.04642575979232788,0
1772739588919119400,1.204119384765625,0.051312681287527084,0.04153883829712868,0.024434609338641167
1772739588928502800,1.213502685546875,0.05864306539297104,0.042760565876960754,0.045204028487205505
1772739588940170500,1.22517041015625,0.059864792972803116,0.04886921867728233,0.07330382615327835
1772739588948568000,1.233568115234375,0.059864792972803116,0.05375614017248154,0.07941248267889023
1772739588958620700,1.24362060546875,0.06230825558304787,0.06108652427792549,0.09529497474431992
1772739588968608800,1.25360888671875,0.07330382615327835,0.059864792972803116,0.10995574295520782
1772739588978957000,1.26395703125,0.06230825558304787,0.059864792972803116,0.10262536257505417
1772739588998705200,1.283705078125,0.03298672288656235,0.0708603709936142,0.0806342139840126
1772739589008698600,1.29369873046875,0.021991148591041565,0.07696902006864548,0.07941248267889023
1772739589018741200,1.3037412109375,0.018325956538319588,0.0806342139840126,0.0806342139840126
1772739589028740600,1.31374072265625,0.009773843921720982,0.08552113175392151,0.09285151958465576
1772739589038788400,1.323788330078125,0.019547687843441963,0.08307767659425735,0.12217304855585098
1772739589048775400,1.333775390625,0.02932153269648552,0.06841690838336945,0.09773843735456467
1772739589058812400,1.3438125,0.00855211354792118,0.0659734457731247,0.09040805697441101
1772739589068808400,1.353808349609375,-0.004886921960860491,0.07819075137376785,0.08552113175392151
1772739589079778000,1.364778076171875,0.00366519158706069,0.06963863968849182,0.02932153269648552
1772739589109063700,1.394063720703125,0.013439035043120384,0.04764748737215996,0.01710422709584236
1772739589118975200,1.403975341796875,0.013439035043120384,0.02932153269648552,0.010995574295520782
1772739589128985300,1.4139853515625,0.010995574295520782,0.01466076634824276,-0.0012217304902151227
1772739589139038700,1.424038818359375,0.013439035043120384,0.004886921960860491,-0.013439035043120384
1772739589149033200,1.434033203125,0.01466076634824276,-0.00733038317412138,-0.01466076634824276
1772739589159093000,1.444093017578125,0.01710422709584236,-0.019547687843441963,-0.00733038317412138
1772739589169112000,1.454112060546875,0.018325956538319588,-0.03176499158143997,0.00733038317412138
1772739589179480600,1.46448046875,0.024434609338641167,-0.03787364438176155,0.02321287989616394
1772739589189161500,1.474161376953125,0.030543262138962746,-0.042760565876960754,0.03420845419168472
1772739589209256200,1.494256103515625,0.039095375686883926,-0.03787364438176155,0.0403171069920063
1772739589219315700,1.504315673828125,0.039095375686883926,-0.03787364438176155,0.0403171069920063
1772739589229312000,1.51431201171875,0.03176499158143997,-0.0403171069920063,0.036651913076639175
1772739589239957500,1.52495751953125,0.021991148591041565,-0.0403171069920063,0.030543262138962746
1772739589249366500,1.534366455078125,0.019547687843441963,-0.0354301854968071,0.030543262138962746
1772739589261033500,1.546033447265625,0.018325956538319588,-0.03298672288656235,0.021991148591041565
1772739589269439500,1.554439453125,0.012217304669320583,-0.03176499158143997,0.006108652334660292
1772739589279783400,1.564783447265625,0.00366519158706069,-0.025656340643763542,0
1772739589289484800,1.57448486328125,-0.006108652334660292,-0.025656340643763542,-0.013439035043120384
1772739589319580700,1.60458056640625,-0.036651913076639175,-0.006108652334660292,-0.01710422709584236
1772739589329593000,1.614593017578125,-0.039095375686883926,-0.0024434609804302454,0.00366519158706069
1772739589339649300,1.624649169921875,-0.04153883829712868,-0.009773843921720982,0.013439035043120384
1772739589349634300,1.63463427734375,-0.05253441259264946,-0.004886921960860491,0.025656340643763542
1772739589359666200,1.644666259765625,-0.05009094998240471,0.00366519158706069,0.02076941914856434
1772739589369666800,1.654666748046875,-0.04886921867728233,0.012217304669320583,0.010995574295520782
1772739589380035000,1.66503515625,-0.05253441259264946,0.015882495790719986,-0.004886921960860491
1772739589389706000,1.6747060546875,-0.05742133408784866,0.01466076634824276,-0.012217304669320583
1772739589422309000,1.70730908203125,-0.05375614017248154,0.01466076634824276,-0.013439035043120384
1772739589429839600,1.714839599609375,-0.051312681287527084,0.013439035043120384,-0.010995574295520782
1772739589439877000,1.724877197265625,-0.05009094998240471,0.00855211354792118,-0.012217304669320583
1772739589449880300,1.73488037109375,-0.05375614017248154,0.00733038317412138,-0.010995574295520782
1772739589459937500,1.7449375,-0.051312681287527084,0.00855211354792118,-0.0024434609804302454
1772739589469928200,1.75492822265625,-0.042760565876960754,0.00855211354792118,0.00855211354792118
1772739589480277800,1.76527783203125,-0.02687807008624077,0.00366519158706069,0.030543262138962746
1772739589490001700,1.775001708984375,-0.018325956538319588,0,0.036651913076639175
1772739589500056000,1.78505615234375,-0.01466076634824276,-0.0024434609804302454,0.02321287989616394
1772739589520081400,1.805081298828125,-0.004886921960860491,-0.00366519158706069,-0.009773843921720982
1772739589530086100,1.815086181640625,0.0012217304902151227,-0.00733038317412138,-0.019547687843441963
1772739589540145700,1.825145751953125,0.00366519158706069,-0.010995574295520782,-0.03176499158143997
1772739589550143000,1.83514306640625,0.00733038317412138,-0.006108652334660292,-0.042760565876960754
1772739589560784100,1.8457841796875,0.013439035043120384,0.0024434609804302454,-0.05375614017248154
1772739589570184200,1.85518408203125,0.02076941914856434,0.004886921960860491,-0.05375614017248154
1772739589582193400,1.867193359375,0.036651913076639175,-0.0012217304902151227,-0.01466076634824276
1772739589590255600,1.875255615234375,0.04153883829712868,-0.00733038317412138,-0.0012217304902151227
1772739589600285200,1.88528515625,0.05009094998240471,-0.018325956538319588,0.010995574295520782
1772739589630353400,1.915353515625,0.06719517707824707,-0.01466076634824276,0.00366519158706069
1772739589640401200,1.925401123046875,0.07452555745840073,-0.021991148591041565,0.012217304669320583
1772739589650420500,1.93542041015625,0.08185594528913498,-0.028099801391363144,0.018325956538319588
1772739589660476000,1.945475830078125,0.08307767659425735,-0.03298672288656235,0.010995574295520782
1772739589670472700,1.95547265625,0.08307767659425735,-0.03298672288656235,0.00366519158706069
1772739589680822300,1.965822265625,0.08307767659425735,-0.02687807008624077,0.0024434609804302454
1772739589690539800,1.975539794921875,0.08307767659425735,-0.02321287989616394,0.00733038317412138
1772739589700595500,1.985595458984375,0.0806342139840126,-0.02321287989616394,0.012217304669320583
1772739589710588700,1.995588623046875,0.07696902006864548,-0.024434609338641167,0.019547687843441963
1772739589730655700,2.01565576171875,0.06841690838336945,-0.018325956538319588,0.019547687843441963
1772739589743201800,2.028201904296875,0.06719517707824707,-0.006108652334660292,0.01710422709584236
1772739589750739000,2.035739013671875,0.06352998316287994,0,0.0012217304902151227
1772739589760779000,2.045779052734375,0.05742133408784866,0.006108652334660292,-0.00855211354792118
1772739589770795800,2.055795654296875,0.051312681287527084,0.010995574295520782,-0.028099801391363144
1772739589781171200,2.066171142578125,0.04764748737215996,0.02321287989616394,-0.03787364438176155
1772739589790846500,2.075846435546875,0.039095375686883926,0.02932153269648552,-0.039095375686883926
1772739589800878000,2.085878173828125,0.028099801391363144,0.030543262138962746,-0.028099801391363144
1772739589810888400,2.095888427734375,0.019547687843441963,0.028099801391363144,-0.004886921960860491
1772739589840961500,2.12596142578125,-0.006108652334660292,0.06108652427792549,-0.02932153269648552
1772739589850970000,2.13597021484375,-0.00733038317412138,0.06719517707824707,-0.039095375686883926
1772739589861025500,2.146025634765625,-0.01710422709584236,0.06841690838336945,-0.06841690838336945
1772739589871008500,2.156008544921875,-0.02687807008624077,0.07208210229873657,-0.09773843735456467
1772739589881962500,2.16696240234375,-0.03298672288656235,0.07941248267889023,-0.12095131725072861
1772739589891054000,2.17605419921875,-0.03420845419168472,0.08307767659425735,-0.11850785464048386
1772739589902700000,2.187699951171875,-0.03420845419168472,0.08552113175392151,-0.09773843735456467
1772739589911101000,2.196100830078125,-0.03176499158143997,0.07696902006864548,-0.07208210229873657
1772739589941183700,2.226183837890625,-0.030543262138962746,0.059864792972803116,-0.006108652334660292
1772739589951167000,2.2361669921875,-0.03176499158143997,0.06230825558304787,0.0024434609804302454
1772739589961199400,2.246199462890625,-0.030543262138962746,0.059864792972803116,0.010995574295520782
1772739589971210000,2.2562099609375,-0.025656340643763542,0.05375614017248154,0.00855211354792118
1772739589981590800,2.2665908203125,-0.021991148591041565,0.045204028487205505,-0.013439035043120384
1772739589991264500,2.276264404296875,-0.025656340643763542,0.04764748737215996,-0.02687807008624077
1772739590001301800,2.2863017578125,-0.02687807008624077,0.05009094998240471,-0.03420845419168472
1772739590011335200,2.296335205078125,-0.025656340643763542,0.05009094998240471,-0.039095375686883926
1772739590021397500,2.3063974609375,-0.02321287989616394,0.04642575979232788,-0.036651913076639175
1772739590042046500,2.32704638671875,-0.00733038317412138,0.036651913076639175,-0.006108652334660292
1772739590051451100,2.336451171875,-0.00366519158706069,0.030543262138962746,0.010995574295520782
1772739590064000300,2.349000244140625,-0.009773843921720982,0.021991148591041565,0.018325956538319588
1772739590071534300,2.356534423828125,-0.012217304669320583,0.021991148591041565,0.01710422709584236
1772739590081890300,2.366890380859375,-0.012217304669320583,0.021991148591041565,0.00366519158706069
1772739590091597600,2.37659765625,-0.013439035043120384,0.02321287989616394,-0.00855211354792118
1772739590101666300,2.386666259765625,-0.015882495790719986,0.019547687843441963,-0.024434609338641167
1772739590111654100,2.396654052734375,-0.01466076634824276,0.01710422709584236,-0.036651913076639175
1772739590141764600,2.4267646484375,-0.006108652334660292,0.010995574295520782,0.009773843921720982
1772739590151756000,2.436756103515625,-0.0024434609804302454,0.0012217304902151227,0.02076941914856434
1772739590161798400,2.44679833984375,-0.006108652334660292,-0.006108652334660292,0.010995574295520782
1772739590171838200,2.456838134765625,-0.013439035043120384,-0.0024434609804302454,0.0012217304902151227
1772739590182208800,2.467208740234375,-0.015882495790719986,0.0024434609804302454,-0.0012217304902151227
1772739590191885800,2.4768857421875,-0.013439035043120384,0,0.006108652334660292
1772739590202527500,2.487527587890625,-0.013439035043120384,-0.006108652334660292,0.012217304669320583
1772739590211932200,2.49693212890625,-0.01710422709584236,-0.010995574295520782,0.01466076634824276
1772739590223635700,2.5086357421875,-0.02076941914856434,-0.013439035043120384,0.0024434609804302454
1772739590252032500,2.537032470703125,-0.01710422709584236,-0.02321287989616394,0.03420845419168472
1772739590262085400,2.54708544921875,-0.019547687843441963,-0.02687807008624077,0.028099801391363144
1772739590272074200,2.55707421875,-0.024434609338641167,-0.02321287989616394,0.013439035043120384
1772739590282415000,2.5674150390625,-0.030543262138962746,-0.015882495790719986,-0.0012217304902151227
1772739590292116700,2.57711669921875,-0.03420845419168472,-0.012217304669320583,-0.006108652334660292
1772739590302168300,2.587168212890625,-0.0354301854968071,-0.019547687843441963,-0.012217304669320583
1772739590312155600,2.59715576171875,-0.03176499158143997,-0.024434609338641167,-0.009773843921720982
1772739590322187800,2.607187744140625,-0.02932153269648552,-0.019547687843441963,-0.010995574295520782
1772739590352250000,2.63725,-0.02932153269648552,-0.019547687843441963,-0.01466076634824276
1772739590362899500,2.6478994140625,-0.02076941914856434,-0.024434609338641167,-0.010995574295520782
1772739590372338700,2.657338623046875,-0.015882495790719986,-0.02076941914856434,0
1772739590385222700,2.67022265625,-0.012217304669320583,-0.018325956538319588,0.010995574295520782
1772739590392684800,2.677684814453125,-0.006108652334660292,-0.018325956538319588,0.01466076634824276
1772739590402488600,2.687488525390625,0,-0.015882495790719986,0.019547687843441963
1772739590412543700,2.697543701171875,0.00366519158706069,-0.01710422709584236,0.01710422709584236
1772739590422612700,2.70761279296875,0.00366519158706069,-0.015882495790719986,0.013439035043120384
1772739590432613000,2.717613037109375,0.004886921960860491,-0.01466076634824276,0.013439035043120384
1772739590462759400,2.747759521484375,0.0024434609804302454,-0.004886921960860491,-0.0012217304902151227
1772739590472767700,2.757767822265625,-0.0012217304902151227,0.0012217304902151227,-0.004886921960860491
1772739590483132400,2.76813232421875,-0.0012217304902151227,0.006108652334660292,-0.010995574295520782
1772739590492884200,2.77788427734375,-0.0024434609804302454,0.009773843921720982,-0.01710422709584236
1772739590502948400,2.7879482421875,-0.0024434609804302454,0.00855211354792118,-0.02076941914856434
1772739590512953300,2.797953369140625,-0.0012217304902151227,0.00855211354792118,-0.01710422709584236
1772739590523616500,2.808616455078125,-0.0024434609804302454,0.010995574295520782,-0.01710422709584236
1772739590533048000,2.818048095703125,-0.00366519158706069,0.012217304669320583,-0.015882495790719986
1772739590563193600,2.848193603515625,0.0024434609804302454,0.021991148591041565,0.006108652334660292
1772739590573213400,2.85821337890625,0.00733038317412138,0.02932153269648552,0.02687807008624077
1772739590583596000,2.868595947265625,0.02076941914856434,0.0403171069920063,0.05864306539297104
1772739590593286700,2.87828662109375,0.03420845419168472,0.04642575979232788,0.08429940044879913
1772739590603338800,2.8883388671875,0.045204028487205505,0.05375614017248154,0.11972958594560623
1772739590613367800,2.898367919921875,0.05742133408784866,0.059864792972803116,0.13805554807186127
1772739590623434200,2.908434326171875,0.07452555745840073,0.07941248267889023,0.14782938361167908
1772739590633436200,2.918436279296875,0.09285151958465576,0.09285151958465576,0.14538592100143433
1772739590643484700,2.928484619140625,0.1014036312699318,0.09896016865968704,0.13927727937698364
1772739590663572200,2.948572265625,0.13316862285137177,0.0708603709936142,0.1417207419872284
1772739590673575000,2.958574951171875,0.14294247329235077,0.08552113175392151,0.1368338167667389
1772739590684543700,2.969543701171875,0.15393804013729095,0.07941248267889023,0.14294247329235077
1772739590693672400,2.97867236328125,0.1661553531885147,0.05009094998240471,0.11239920556545258
1772739590706228500,2.991228515625,0.14538592100143433,0.015882495790719986,0.10262536257505417
1772739590713771300,2.998771240234375,0.13805554807186127,0.009773843921720982,0.1062905490398407
1772739590723817500,3.0088173828125,0.13316862285137177,-0.004886921960860491,0.1111774742603302
1772739590733841400,3.01884130859375,0.13316862285137177,-0.02321287989616394,0.10506882518529892
1772739590743908600,3.02890869140625,0.11484266817569733,-0.04398229718208313,0.05742133408784866
1772739590773995000,3.0589951171875,0.06719517707824707,-0.00855211354792118,-0.024434609338641167
1772739590784370000,3.069369873046875,0.05497787147760391,0,-0.02932153269648552
1772739590794059500,3.0790595703125,0.05864306539297104,-0.03298672288656235,-0.03420845419168472
1772739590804130300,3.08913037109375,0.04642575979232788,-0.02932153269648552,-0.03420845419168472
1772739590814184700,3.099184814453125,0.02321287989616394,0.0012217304902151227,-0.02321287989616394
1772739590824262100,3.10926220703125,0.009773843921720982,0.018325956538319588,-0.01710422709584236
1772739590834276400,3.1192763671875,0.006108652334660292,0.01466076634824276,-0.021991148591041565
1772739590844948500,3.129948486328125,-0.013439035043120384,0.01466076634824276,-0.030543262138962746
1772739590866106600,3.151106689453125,-0.036651913076639175,0.021991148591041565,-0.018325956538319588
1772739590874485200,3.1594853515625,-0.04153883829712868,0.018325956538319588,-0.021991148591041565
1772739590884842800,3.1698427734375,-0.05375614017248154,0.019547687843441963,-0.036651913076639175
1772739590894570000,3.179570068359375,-0.06963863968849182,0.02076941914856434,-0.04886921867728233
1772739590904633000,3.189633056640625,-0.08796459436416626,0.025656340643763542,-0.02932153269648552
1772739590914631000,3.199630859375,-0.09285151958465576,0.024434609338641167,0.00733038317412138
1772739590924678000,3.209677978515625,-0.08918632566928864,0.024434609338641167,0.03298672288656235
1772739590934697500,3.219697509765625,-0.09529497474431992,0.024434609338641167,0.04153883829712868
1772739590944764700,3.2297646484375,-0.10873401165008545,0.02687807008624077,0.015882495790719986
1772739590954763000,3.239762939453125,-0.12339477986097336,0.0403171069920063,-0.025656340643763542
1772739590985197300,3.270197265625,-0.14905111491680145,0.05253441259264946,0.00366519158706069
1772739590994883300,3.27988330078125,-0.1563815027475357,0.05253441259264946,0.02076941914856434
1772739591005544400,3.29054443359375,-0.16982053220272064,0.059864792972803116,0.02687807008624077
1772739591014966300,3.29996630859375,-0.17959438264369965,0.07696902006864548,0.024434609338641167
1772739591027515100,3.31251513671875,-0.18325957655906677,0.09040805697441101,0.012217304669320583
1772739591035055900,3.320055908203125,-0.17959438264369965,0.1014036312699318,0.01710422709584236
1772739591045105000,3.33010498046875,-0.17104226350784302,0.10506882518529892,0.012217304669320583
1772739591055117000,3.340116943359375,-0.15760323405265808,0.10506882518529892,0.009773843921720982
1772739591065169200,3.350169189453125,-0.1466076523065567,0.09896016865968704,0.013439035043120384
1772739591085514500,3.370514404296875,-0.1514945775270462,0.08185594528913498,0.07452555745840073
1772739591095222300,3.38022216796875,-0.15760323405265808,0.03298672288656235,0.10873401165008545
1772739591105273300,3.3902734375,-0.12461651116609573,0.01710422709584236,0.16982053220272064
1772739591115262200,3.40026220703125,-0.05375614017248154,-0.02932153269648552,0.2382374405860901
1772739591125300000,3.410300048828125,-0.051312681287527084,-0.05375614017248154,0.32131510972976685
1772739591135311400,3.420311279296875,-0.059864792972803116,-0.08307767659425735,0.39217549562454224
1772739591145373200,3.430373291015625,-0.04764748737215996,-0.1319468915462494,0.42149701714515686
1772739591155364600,3.440364501953125,-0.02932153269648552,-0.1612684279680252,0.3799581825733185
1772739591166009600,3.451009521484375,-0.0354301854968071,-0.1661553531885147,0.3017674386501312
1772739591195496200,3.48049609375,-0.036651913076639175,-0.17348572611808777,0.07696902006864548
1772739591205539600,3.49053955078125,-0.06475171446800232,-0.18570303916931152,0.04886921867728233
1772739591215583000,3.5005830078125,-0.09896016865968704,-0.16859880089759827,0.0659734457731247
1772739591225636000,3.510635986328125,-0.1319468915462494,-0.14049901068210602,0.08674286305904388
1772739591235626500,3.52062646484375,-0.1722639948129654,-0.1160643994808197,0.09162978827953339
1772739591245665800,3.530665771484375,-0.26022860407829285,-0.06841690838336945,0.0708603709936142
1772739591255686700,3.540686767578125,-0.33719760179519653,-0.03787364438176155,0.004886921960860491
1772739591265743400,3.550743408203125,-0.4300491213798523,-0.0024434609804302454,-0.11728613078594208
1772739591275740000,3.560739990234375,-0.5424483418464661,0.05497787147760391,-0.25045475363731384
1772739591305880800,3.590880859375,-0.9712757468223572,0.34697145223617554,-0.6707300543785095
1772739591315870200,3.6008701171875,-1.1630873680114746,0.48747047781944275,-0.7782423496246338
1772739591326519600,3.61151953125,-1.3463469743728638,0.626747727394104,-0.8649851679801941
1772739591335951000,3.620951171875,-1.5467108488082886,0.7611380815505981,-0.8906415104866028
1772739591348494800,3.633494873046875,-1.8558086156845093,0.9089674949645996,-0.779464066028595
1772739591356028200,3.641028076171875,-1.957212209701538,0.9358455538749695,-0.7354817390441895
1772739591366065200,3.651065185546875,-2.2821924686431885,1.0103710889816284,-0.5326744914054871
1772739591376209400,3.66120947265625,-2.5302038192749023,1.0543533563613892,-0.3836233615875244
1772739591406172400,3.69117236328125,-3.2168164253234863,1.1142182350158691,-0.12461651116609573
1772739591416202500,3.701202392578125,-3.4245104789733887,1.1081095933914185,-0.1514945775270462
1772739591426276000,3.711276123046875,-3.615100622177124,1.1056660413742065,-0.21624629199504852
1772739591436267500,3.721267578125,-3.7873644828796387,1.0836749076843262,-0.35185837745666504
1772739591446308000,3.73130810546875,-3.941302537918091,1.0506882667541504,-0.5412266254425049
1772739591456317400,3.7413173828125,-4.0744709968566895,1.0054842233657837,-0.7562511563301086
1772739591466369500,3.75136962890625,-4.1832051277160645,0.9541715383529663,-0.9944885969161987
1772739591476365600,3.761365478515625,-4.294382572174072,0.8845328688621521,-1.2522737979888916
1772739591510174200,3.79517431640625,-4.539950370788574,0.5815436840057373,-2.333505153656006
1772739591518532900,3.803532958984375,-4.5546112060546875,0.5534439086914062,-2.596177339553833
1772739591528593700,3.81359375,-4.553389549255371,0.5815436840057373,-2.7904324531555176
1772739591538607600,3.823607666015625,-4.4874162673950195,0.7244861721992493,-2.7097983360290527
1772739591548679400,3.833679443359375,-4.403116703033447,0.8979719281196594,-2.3933699131011963
1772739591558672600,3.843672607421875,-4.288273811340332,0.9761626720428467,-1.9071213006973267
1772739591569192700,3.854192626953125,-3.992615222930908,0.7867944240570068,-1.0335839986801147
1772739591578735000,3.863735107421875,-3.754377841949463,0.5461135506629944,-0.5742133259773254
1772739591608843500,3.893843505859375,-3.1251866817474365,0.036651913076639175,0.1014036312699318
1772739591618877400,3.90387744140625,-2.8771753311157227,0.03420845419168472,0.3335324227809906
1772739591628916500,3.91391650390625,-2.6120598316192627,0.024434609338641167,0.4960225820541382
1772739591638920700,3.923920654296875,-2.3298399448394775,-0.05497787147760391,0.4691445231437683
1772739591649589000,3.934589111328125,-2.107485055923462,-0.1417207419872284,0.38117989897727966
1772739591658985700,3.94398583984375,-1.9657644033432007,-0.2076941877603531,0.294437050819397
1772739591671507500,3.956507568359375,-1.7617353200912476,-0.2834414839744568,0.015882495790719986
1772739591679063800,3.964063720703125,-1.6701055765151978,-0.28955012559890747,-0.13439035415649414
1772739591689426200,3.97442626953125,-1.389107584953308,-0.2321287989616394,-0.685390830039978
1772739591709152000,3.994152099609375,-1.2107349634170532,-0.06352998316287994,-1.1753047704696655
1772739591719164200,4.0041640625,-1.1618657112121582,0.036651913076639175,-1.1215485334396362
1772739591729229800,4.014229736328125,-1.1410962343215942,0.0708603709936142,-0.9004153609275818
1772739591739232500,4.024232421875,-1.1215485334396362,0.013439035043120384,-0.5253441333770752
1772739591749263600,4.034263671875,-1.0653489828109741,-0.09773843735456467,-0.1722639948129654
1772739591759268000,4.04426806640625,-0.9969320893287659,-0.1563815027475357,-0.006108652334660292
1772739591769333200,4.054333251953125,-0.9443976879119873,-0.14294247329235077,0.02076941914856434
1772739591779326700,4.06432666015625,-0.9028588533401489,-0.1160643994808197,-0.06352998316287994
1772739591789675300,4.07467529296875,-0.8478809595108032,-0.10995574295520782,-0.20891591906547546
1772739591810037500,4.09503759765625,-0.6609562039375305,-0.05864306539297104,-0.2932153046131134
1772739591819448600,4.104448486328125,-0.6010913848876953,-0.045204028487205505,-0.12339477986097336
1772739591831089200,4.116089111328125,-0.5571091175079346,-0.1014036312699318,0.05742133408784866
1772739591839502000,4.124502197265625,-0.513126790523529,-0.17959438264369965,0.18448130786418915
1772739591849576700,4.13457666015625,-0.46181413531303406,-0.2064724564552307,0.2528982162475586
1772739591859575000,4.144574951171875,-0.3995058834552765,-0.19914206862449646,0.25045475363731384
1772739591869609000,4.15460888671875,-0.33108896017074585,-0.2076941877603531,0.16737708449363708
1772739591879605500,4.16460546875,-0.27611109614372253,-0.22602014243602753,0.1014036312699318
1772739591889964500,4.174964599609375,-0.2480112910270691,-0.24190263450145721,0.11362093687057495
1772739591919688200,4.204688232421875,-0.2272418737411499,-0.3176499307155609,0.30054569244384766
1772739591929737700,4.21473779296875,-0.1368338167667389,-0.1869247704744339,0.2834414839744568
1772739591939715800,4.2247158203125,-0.4447098970413208,-0.24678955972194672,0.6939429044723511
1772739591949745400,4.234745361328125,-0.8576548099517822,-0.39584067463874817,1.0604621171951294
1772739591959750100,4.244750244140625,-0.19914206862449646,-0.0659734457731247,0.4544837474822998
1772739591970407400,4.255407470703125,0.34086281061172485,0.3640756905078888,-0.19547687470912933
1772739591979789600,4.26478955078125,0.475253164768219,0.49846604466438293,-0.08552113175392151
1772739591992628500,4.27762841796875,0.45204028487205505,0.33597588539123535,-0.0403171069920063
1772739592019922400,4.30492236328125,0.14905111491680145,0.15882496535778046,-0.304210901260376
1772739592029950000,4.314949951171875,0.1258382350206375,0.07452555745840073,-0.25534167885780334
1772739592039950300,4.324950439453125,0.12950342893600464,-0.05864306539297104,-0.1319468915462494
1772739592049999000,4.3349990234375,0.051312681287527084,-0.15271630883216858,-0.024434609338641167
1772739592059991300,4.3449912109375,-0.025656340643763542,-0.28588494658470154,0.09896016865968704
1772739592070017800,4.355017822265625,-0.14416420459747314,-0.43127086758613586,0.24556782841682434
1772739592080022300,4.365022216796875,-0.25534167885780334,-0.44837507605552673,0.22846360504627228
1772739592090380500,4.375380615234375,-0.22846360504627228,-0.3335324227809906,0.19303341209888458
1772739592100065000,4.38506494140625,-0.10506882518529892,-0.3090978264808655,0.16859880089759827
1772739592130758000,4.4157578125,0.22968533635139465,-0.13439035415649414,0.03787364438176155
1772739592140142800,4.425142822265625,0.1661553531885147,-0.12095131725072861,0.09040805697441101
1772739592151809000,4.43680908203125,0.16982053220272064,-0.018325956538319588,0.0806342139840126
1772739592160192500,4.445192626953125,0.1661553531885147,0.12461651116609573,-0.0024434609804302454
1772739592170245600,4.45524560546875,0.03176499158143997,0.07941248267889023,-0.02321287989616394
1772739592180225000,4.46522509765625,-0.021991148591041565,-0.04764748737215996,0.1062905490398407
1772739592190561500,4.4755615234375,-0.0012217304902151227,-0.10384709388017654,0.18570303916931152
1772739592200255000,4.4852548828125,0.02687807008624077,0.009773843921720982,0.1918116807937622
1772739592230334700,4.515334716796875,0.10995574295520782,0.036651913076639175,0.16249015927314758
1772739592240344300,4.52534423828125,0.13072516024112701,0.04642575979232788,0.12095131725072861
1772739592250406100,4.53540625,0.14294247329235077,0.045204028487205505,0.09773843735456467
1772739592260388400,4.545388427734375,0.15882496535778046,0.02687807008624077,0.08552113175392151
1772739592270416100,4.555416015625,0.15393804013729095,-0.0012217304902151227,0.059864792972803116
1772739592280416000,4.565416015625,0.14782938361167908,-0.02932153269648552,0.030543262138962746
1772739592291388200,4.57638818359375,0.17837265133857727,-0.0354301854968071,0.004886921960860491
1772739592300477700,4.585477783203125,0.17592918872833252,-0.07330382615327835,-0.00366519158706069
1772739592330581200,4.615581298828125,0.1661553531885147,-0.19914206862449646,0.11239920556545258
1772739592340568800,4.62556884765625,0.1722639948129654,-0.21991148591041565,0.2675589919090271
1772739592350596400,4.635596435546875,0.17348572611808777,-0.20036379992961884,0.33597588539123535
1772739592360595500,4.645595458984375,0.19058994948863983,-0.12339477986097336,0.42638394236564636
1772739592370647600,4.6556474609375,0.1771509200334549,-0.09773843735456467,0.5082398653030396
1772739592380636000,4.665635986328125,0.1661553531885147,-0.01466076634824276,0.5705481171607971
1772739592390992600,4.67599267578125,0.18814650177955627,0.02932153269648552,0.5607742667198181
1772739592400686600,4.6856865234375,0.20402899384498596,0.05864306539297104,0.50335294008255
1772739592410740700,4.69574072265625,0.1722639948129654,0.08552113175392151,0.43127086758613586
1772739592440796000,4.7257958984375,0.012217304669320583,0.08429940044879913,-0.06719517707824707
1772739592451462100,4.736462158203125,0.00855211354792118,0.11239920556545258,-0.2883284091949463
1772739592460845800,4.745845703125,-0.04153883829712868,0.13439035415649414,-0.37140607833862305
1772739592472477400,4.7574775390625,-0.17104226350784302,0.1612684279680252,-0.5827654600143433
1772739592480885800,4.7658857421875,-0.2321287989616394,0.15393804013729095,-0.6670648455619812
1772739592491261400,4.776261474609375,-0.2834414839744568,0.24190263450145721,-0.675616979598999
1772739592511007500,4.796007568359375,-0.30543261766433716,0.2223549485206604,-0.5668829679489136
1772739592521016800,4.806016845703125,-0.32620203495025635,0.09040805697441101,-0.513126790523529
1772739592551145500,4.8361455078125,-0.3689626157283783,0.07941248267889023,-0.2541199326515198
1772739592561164800,4.846164794921875,-0.3237585723400116,0.025656340643763542,-0.2015855312347412
1772739592571243300,4.8562431640625,-0.26633724570274353,0.00855211354792118,-0.15760323405265808
1772739592581248300,4.866248291015625,-0.2370157092809677,-0.018325956538319588,-0.09529497474431992
1772739592591622400,4.876622314453125,-0.18570303916931152,-0.059864792972803116,-0.0354301854968071
1772739592601311000,4.88631103515625,-0.1258382350206375,-0.08796459436416626,-0.019547687843441963
1772739592612026000,4.897026123046875,-0.0708603709936142,-0.09529497474431992,-0.030543262138962746
1772739592621424600,4.906424560546875,-0.03787364438176155,-0.12095131725072861,-0.0354301854968071
1772739592633954800,4.918954833984375,-0.019547687843441963,-0.16982053220272064,0.039095375686883926
1772739592651588400,4.93658837890625,0.00366519158706069,-0.21135938167572021,0.1771509200334549
1772739592661590300,4.94659033203125,0.009773843921720982,-0.20036379992961884,0.23090706765651703
1772739592671639300,4.956639404296875,0.004886921960860491,-0.20891591906547546,0.2993239760398865
1772739592681667000,4.9666669921875,0.00855211354792118,-0.20525072515010834,0.34208452701568604
1772739592692048400,4.97704833984375,-0.019547687843441963,-0.1918116807937622,0.2822197377681732
1772739592701751300,4.986751220703125,-0.05009094998240471,-0.1014036312699318,0.23945917189121246
1772739592711804200,4.99680419921875,-0.1014036312699318,-0.09896016865968704,0.1368338167667389
1772739592721824300,5.00682421875,-0.13805554807186127,-0.14416420459747314,0.01710422709584236
1772739592751965000,5.03696484375,-0.12339477986097336,0.04642575979232788,-0.06719517707824707
1772739592761989400,5.0469892578125,-0.17837265133857727,-0.030543262138962746,-0.1563815027475357
1772739592772665600,5.05766552734375,-0.30543261766433716,-0.23579397797584534,-0.05009094998240471
1772739592782095000,5.06709521484375,-0.3225368559360504,-0.12461651116609573,0.04764748737215996
1772739592794100000,5.079099853515625,-0.2565633952617645,0.042760565876960754,0.07941248267889023
1772739592802195500,5.087195556640625,-0.2785545587539673,-0.019547687843441963,0.08429940044879913
1772739592812260600,5.097260498046875,-0.2773328125476837,0.004886921960860491,0.05009094998240471
1772739592822297300,5.10729736328125,-0.27488934993743896,0.0403171069920063,-0.00366519158706069
1772739592852453400,5.137453369140625,-0.06963863968849182,0.22602014243602753,-0.1368338167667389
1772739592862471700,5.1474716796875,-0.030543262138962746,0.19792033731937408,-0.1160643994808197
1772739592872532000,5.157531982421875,-0.012217304669320583,0.14416420459747314,0.01710422709584236
1772739592882553600,5.1675537109375,0.02932153269648552,0.17104226350784302,0.09040805697441101
1772739592892935700,5.177935791015625,0.04153883829712868,0.1966986060142517,0.13927727937698364
1772739592902636800,5.18763671875,0.039095375686883926,0.15882496535778046,0.18936823308467865
1772739592912684300,5.197684326171875,0.05375614017248154,0.1466076523065567,0.2064724564552307
1772739592922702000,5.2077021484375,0.059864792972803116,0.17959438264369965,0.2272418737411499
1772739592955293700,5.240293701171875,0.009773843921720982,0.08552113175392151,0.29077184200286865
1772739592962996200,5.247996337890625,-0.018325956538319588,0.06841690838336945,0.2370157092809677
1772739592972920600,5.257920654296875,-0.05375614017248154,0.02687807008624077,0.1466076523065567
1772739592982914600,5.26791455078125,-0.09896016865968704,-0.021991148591041565,0.03298672288656235
1772739592993267700,5.278267822265625,-0.14049901068210602,-0.05497787147760391,-0.04886921867728233
1772739593002966800,5.287966796875,-0.1722639948129654,-0.08429940044879913,-0.10995574295520782
1772739593013026800,5.29802685546875,-0.19792033731937408,-0.09896016865968704,-0.13805554807186127
1772739593023050800,5.30805078125,-0.02321287989616394,0.24923302233219147,-0.26633724570274353
1772739593053172700,5.3381728515625,-0.06352998316287994,0.3335324227809906,-0.5057964324951172
1772739593063176400,5.348176513671875,-0.039095375686883926,0.33719760179519653,-0.4948008358478546
1772739593073225700,5.358225830078125,-0.05375614017248154,0.27611109614372253,-0.4801400899887085
1772739593083239200,5.3682392578125,-0.0806342139840126,0.19547687470912933,-0.34208452701568604
1772739593094227000,5.37922705078125,-0.13072516024112701,0.1612684279680252,-0.13805554807186127
1772739593103330800,5.388330810546875,-0.15760323405265808,0.16249015927314758,-0.08796459436416626
1772739593114974500,5.399974365234375,-0.1563815027475357,0.15515977144241333,-0.051312681287527084
1772739593123399700,5.408399658203125,-0.14905111491680145,0.14782938361167908,-0.05619960278272629
1772739593133460700,5.418460693359375,-0.15027284622192383,0.1466076523065567,-0.12095131725072861
1772739593173597700,5.45859765625,-0.22602014243602753,0.25534167885780334,-0.4153883755207062
1772739593183609000,5.468609130859375,-0.2577851414680481,0.2528982162475586,-0.4398229718208313
1772739593193962800,5.478962646484375,-0.26633724570274353,0.22479841113090515,-0.45814892649650574
1772739593203670000,5.488669921875,-0.27122417092323303,0.1869247704744339,-0.44226643443107605
1772739593213735700,5.498735595703125,-0.2834414839744568,0.13316862285137177,-0.38240164518356323
1772739593223763700,5.508763671875,-0.2883284091949463,0.11484266817569733,-0.34208452701568604
1772739593233814300,5.518814208984375,-0.26633724570274353,0.10751228034496307,-0.2981022298336029
1772739593243849200,5.52884912109375,-0.21991148591041565,0.10995574295520782,-0.26145032048225403
1772739593276468000,5.561468017578125,-0.1111774742603302,0.10995574295520782,-0.31520646810531616
1772739593284037400,5.569037353515625,-0.1062905490398407,0.10995574295520782,-0.3225368559360504
1772739593294421200,5.579421142578125,-0.09773843735456467,0.10018189996480942,-0.31520646810531616
1772739593304119300,5.589119384765625,-0.08674286305904388,0.08307767659425735,-0.2773328125476837
1772739593314166800,5.599166748046875,-0.0806342139840126,0.0659734457731247,-0.21135938167572021
1772739593324183000,5.60918310546875,-0.06719517707824707,0.05619960278272629,-0.12950342893600464
1772739593334248700,5.619248779296875,-0.04153883829712868,0.04153883829712868,0.009773843921720982
1772739593344258300,5.62925830078125,-0.0354301854968071,0.0354301854968071,0.07819075137376785
1772739593354306000,5.63930615234375,-0.03298672288656235,0.036651913076639175,0.15760323405265808
1772739593384402000,5.66940185546875,-0.06108652427792549,0.06841690838336945,0.24556782841682434
1772739593394761200,5.67976123046875,-0.07819075137376785,0.08552113175392151,0.251676470041275
1772739593404460300,5.689460205078125,-0.08796459436416626,0.10018189996480942,0.24678955972194672
1772739593415132200,5.700132080078125,-0.08185594528913498,0.11239920556545258,0.24434609711170197
1772739593424526600,5.709526611328125,-0.059864792972803116,0.1258382350206375,0.23335053026676178
1772739593436206800,5.721206787109375,-0.05375614017248154,0.11850785464048386,0.2565633952617645
1772739593444596000,5.729595947265625,-0.06841690838336945,0.09896016865968704,0.23090706765651703
1772739593454652200,5.739652099609375,-0.06475171446800232,0.08307767659425735,0.1722639948129654
1772739593464640800,5.749640869140625,-0.0659734457731247,0.08307767659425735,0.15515977144241333
1772739593495062300,5.780062255859375,-0.05497787147760391,0,0.059864792972803116
1772739593504785400,5.789785400390625,-0.05009094998240471,-0.019547687843441963,0.01466076634824276
1772739593514830600,5.79983056640625,-0.04886921867728233,-0.036651913076639175,-0.0354301854968071
1772739593524845300,5.80984521484375,-0.04398229718208313,-0.042760565876960754,-0.08429940044879913
1772739593534909200,5.8199091796875,-0.04886921867728233,-0.042760565876960754,-0.13316862285137177
1772739593544927200,5.82992724609375,-0.06352998316287994,-0.045204028487205505,-0.18448130786418915
1772739593554970000,5.83997021484375,-0.08674286305904388,-0.051312681287527084,-0.24434609711170197
1772739593564972300,5.84997216796875,-0.10506882518529892,-0.05375614017248154,-0.2687807083129883
1772739593585023700,5.870023681640625,-0.059864792972803116,-0.059864792972803116,-0.17592918872833252
1772739593598120400,5.883120361328125,-0.04153883829712868,-0.036651913076639175,-0.10384709388017654
1772739593605569800,5.89056982421875,-0.010995574295520782,-0.02321287989616394,-0.04886921867728233
1772739593615158800,5.90015869140625,0.00366519158706069,0.0024434609804302454,-0.00855211354792118
1772739593625170200,5.910170166015625,0.01466076634824276,0.02321287989616394,0.02321287989616394
1772739593635222800,5.920222900390625,0.02076941914856434,0.0354301854968071,0.03787364438176155
1772739593645237200,5.9302373046875,0.028099801391363144,0.05253441259264946,0.028099801391363144
1772739593655308800,5.940308837890625,0.02932153269648552,0.06352998316287994,0.02076941914856434
1772739593665293800,5.9502939453125,0.02932153269648552,0.0659734457731247,0.025656340643763542
1772739593675343400,5.96034326171875,0.02932153269648552,0.06719517707824707,0.04398229718208313
1772739593695726600,5.9807265625,0.02687807008624077,0.06963863968849182,0.08552113175392151
1772739593705401000,5.990401123046875,0.02321287989616394,0.06475171446800232,0.10506882518529892
1772739593715455500,6.00045556640625,0.01466076634824276,0.05619960278272629,0.12339477986097336
1772739593725458000,6.0104580078125,0.010995574295520782,0.05375614017248154,0.12339477986097336
1772739593736141600,6.0211416015625,0.004886921960860491,0.04886921867728233,0.12095131725072861
1772739593745514500,6.030514404296875,0.00366519158706069,0.04764748737215996,0.11972958594560623
1772739593757166800,6.042166748046875,0.004886921960860491,0.0403171069920063,0.11239920556545258
1772739593765592000,6.050592041015625,0.0024434609804302454,0.024434609338641167,0.09896016865968704
1772739593795991600,6.080991455078125,-0.00855211354792118,-0.009773843921720982,0.04886921867728233
1772739593805702700,6.09070263671875,-0.009773843921720982,-0.012217304669320583,0.03298672288656235
1772739593815755300,6.10075537109375,-0.00855211354792118,-0.01466076634824276,0.02687807008624077
1772739593825751600,6.11075146484375,-0.00366519158706069,-0.009773843921720982,0.03176499158143997
1772739593835789000,6.1207890625,0.0012217304902151227,-0.006108652334660292,0.03420845419168472
1772739593845805600,6.1308056640625,0.006108652334660292,-0.0024434609804302454,0.042760565876960754
1772739593855862500,6.140862548828125,0.00733038317412138,-0.0024434609804302454,0.03787364438176155
1772739593865852200,6.15085205078125,0.004886921960860491,-0.00366519158706069,0.0354301854968071
1772739593875887900,6.160887939453125,0.004886921960860491,-0.006108652334660292,0.03420845419168472
1772739593905978600,6.190978515625,0.00366519158706069,-0.00366519158706069,0.036651913076639175
1772739593918500400,6.203500244140625,0.004886921960860491,0,0.045204028487205505
1772739593926064600,6.211064697265625,0.004886921960860491,-0.0012217304902151227,0.045204028487205505
1772739593936127500,6.22112744140625,0.00366519158706069,-0.0012217304902151227,0.045204028487205505
1772739593946121200,6.231121337890625,0.0024434609804302454,-0.0024434609804302454,0.04886921867728233
1772739593956159500,6.241159423828125,0.0024434609804302454,0,0.04886921867728233
1772739593966169300,6.25116943359375,0.00366519158706069,0.00366519158706069,0.05375614017248154
1772739593976227300,6.261227294921875,0.004886921960860491,0.00733038317412138,0.07452555745840073
1772739593986228700,6.271228759765625,0.006108652334660292,0.00733038317412138,0.08674286305904388
1772739594016346400,6.301346435546875,0.0012217304902151227,0.00733038317412138,0.0806342139840126
1772739594026377200,6.311377197265625,0.0024434609804302454,0.004886921960860491,0.059864792972803116
1772739594036435200,6.321435302734375,0.0012217304902151227,0.004886921960860491,0.0354301854968071
1772739594046459400,6.33145947265625,-0.0012217304902151227,0.00366519158706069,0.015882495790719986
1772739594057134600,6.342134521484375,-0.0024434609804302454,-0.0012217304902151227,-0.004886921960860491
1772739594066531600,6.351531494140625,-0.00366519158706069,-0.0012217304902151227,-0.009773843921720982
1772739594078207700,6.363207763671875,-0.0024434609804302454,0.0024434609804302454,0
1772739594086611500,6.371611572265625,-0.0024434609804302454,0.0024434609804302454,0.004886921960860491
1772739594096972000,6.381971923828125,-0.0024434609804302454,0.00366519158706069,0.024434609338641167
1772739594116684000,6.40168408203125,-0.0012217304902151227,0.004886921960860491,0.03787364438176155
1772739594126697500,6.411697509765625,-0.0012217304902151227,0.0012217304902151227,0.030543262138962746
1772739594136754000,6.42175390625,-0.0024434609804302454,-0.0012217304902151227,0.021991148591041565
1772739594146751200,6.431751220703125,-0.0024434609804302454,-0.0024434609804302454,0.012217304669320583
1772739594156782300,6.4417822265625,-0.0024434609804302454,-0.006108652334660292,0.004886921960860491
1772739594166785300,6.451785400390625,-0.006108652334660292,-0.015882495790719986,0.012217304669320583
1772739594176844000,6.461843994140625,-0.00855211354792118,-0.02076941914856434,0.028099801391363144
1772739594186829600,6.47182958984375,-0.00855211354792118,-0.024434609338641167,0.04398229718208313
1772739594197168600,6.482168701171875,-0.00855211354792118,-0.030543262138962746,0.05742133408784866
1772739594217520000,6.50252001953125,-0.013439035043120384,-0.05253441259264946,0.10995574295520782
1772739594226913800,6.511913818359375,-0.018325956538319588,-0.06841690838336945,0.1319468915462494
1772739594239440600,6.524440673828125,-0.0012217304902151227,-0.08796459436416626,0.1368338167667389
1772739594246996700,6.531996826171875,0,-0.10506882518529892,0.13316862285137177
1772739594257063000,6.54206298828125,-0.010995574295520782,-0.11484266817569733,0.12828169763088226
1772739594267060200,6.552060302734375,-0.0024434609804302454,-0.12217304855585098,0.13439035415649414
1772739594277123600,6.56212353515625,0.0024434609804302454,-0.12339477986097336,0.12950342893600464
1772739594287136500,6.572136474609375,0,-0.12339477986097336,0.11484266817569733
1772739594297509400,6.58250927734375,0.0024434609804302454,-0.12339477986097336,0.09162978827953339
1772739594307206700,6.59220654296875,0.00733038317412138,-0.1160643994808197,0.0708603709936142
1772739594327266300,6.612266357421875,0.009773843921720982,-0.07819075137376785,0.02687807008624077
1772739594337307600,6.6223076171875,0.00733038317412138,-0.04886921867728233,0.006108652334660292
1772739594347318000,6.632318115234375,0.010995574295520782,-0.0012217304902151227,-0.03176499158143997
1772739594357373700,6.642373779296875,0.012217304669320583,0.018325956538319588,-0.04886921867728233
1772739594367361800,6.65236181640625,0.010995574295520782,0.02321287989616394,-0.04764748737215996
1772739594378004500,6.66300439453125,0.012217304669320583,0.02932153269648552,-0.042760565876960754
1772739594387408000,6.672407958984375,0.009773843921720982,0.03420845419168472,-0.01466076634824276
1772739594399364000,6.684364013671875,0.004886921960860491,0.030543262138962746,0.01466076634824276
1772739594407472600,6.69247265625,-0.0024434609804302454,0.03176499158143997,0.02687807008624077
1772739594437597700,6.72259765625,-0.009773843921720982,0.042760565876960754,0.06108652427792549
1772739594447586000,6.7325859375,-0.006108652334660292,0.04764748737215996,0.059864792972803116
1772739594457618200,6.7426181640625,-0.004886921960860491,0.05497787147760391,0.05742133408784866
1772739594467631400,6.75263134765625,0.0024434609804302454,0.06352998316287994,0.05009094998240471
1772739594477692000,6.76269189453125,0.01466076634824276,0.07208210229873657,0.03420845419168472
1772739594487676200,6.77267626953125,0.010995574295520782,0.06475171446800232,0.02321287989616394
1772739594498015200,6.78301513671875,0.009773843921720982,0.05619960278272629,0.006108652334660292
1772739594508749600,6.79374951171875,0.009773843921720982,0.045204028487205505,-0.0012217304902151227
1772739594539453000,6.824452880859375,0.00733038317412138,0.02076941914856434,0.009773843921720982
1772739594548855000,6.83385498046875,0.0024434609804302454,0.00855211354792118,0.019547687843441963
1772739594561389800,6.846389892578125,-0.00366519158706069,-0.00733038317412138,0.021991148591041565
1772739594568918300,6.853918212890625,-0.004886921960860491,-0.009773843921720982,0.021991148591041565
1772739594578954000,6.8639541015625,-0.006108652334660292,-0.01710422709584236,0.009773843921720982
1772739594588956700,6.873956787109375,-0.00733038317412138,-0.01710422709584236,-0.0024434609804302454
1772739594599318800,6.88431884765625,-0.00733038317412138,-0.018325956538319588,-0.013439035043120384
1772739594609003300,6.894003173828125,-0.009773843921720982,-0.02321287989616394,-0.024434609338641167
1772739594619038200,6.9040380859375,-0.009773843921720982,-0.024434609338641167,-0.03298672288656235
1772739594649097700,6.93409765625,0.004886921960860491,0.006108652334660292,-0.06963863968849182
1772739594659133700,6.9441337890625,0.00855211354792118,0.01710422709584236,-0.08185594528913498
1772739594669134600,6.954134521484375,0.009773843921720982,0.024434609338641167,-0.08796459436416626
1772739594679187200,6.964187255859375,0.010995574295520782,0.02932153269648552,-0.10873401165008545
1772739594689167600,6.974167724609375,0.01466076634824276,0.04398229718208313,-0.13927727937698364
1772739594700117000,6.985116943359375,0.00733038317412138,0.04642575979232788,-0.1417207419872284
1772739594709209000,6.994208984375,0.009773843921720982,0.04886921867728233,-0.12950342893600464
1772739594720906000,7.005906005859375,0.004886921960860491,0.04764748737215996,-0.1319468915462494
1772739594749300700,7.03430078125,-0.01466076634824276,0.00855211354792118,-0.018325956538319588
1772739594759372300,7.044372314453125,-0.012217304669320583,0.004886921960860491,0.02076941914856434
1772739594769366000,7.054365966796875,-0.010995574295520782,-0.00733038317412138,0.0403171069920063
1772739594779400400,7.064400390625,-0.01466076634824276,-0.02687807008624077,0.0403171069920063
1772739594789418200,7.074418212890625,-0.01466076634824276,-0.03420845419168472,0.02932153269648552
1772739594799789300,7.084789306640625,-0.009773843921720982,-0.03420845419168472,-0.006108652334660292
1772739594809466600,7.094466552734375,-0.004886921960860491,-0.0354301854968071,-0.042760565876960754
1772739594819498800,7.104498779296875,0.0012217304902151227,-0.036651913076639175,-0.07208210229873657
1772739594849578200,7.134578125,0.015882495790719986,-0.02321287989616394,-0.11850785464048386
1772739594860222500,7.145222412109375,0.019547687843441963,-0.02076941914856434,-0.12828169763088226
1772739594869630200,7.154630126953125,0.01710422709584236,-0.028099801391363144,-0.13927727937698364
1772739594882165800,7.167165771484375,0.01710422709584236,-0.028099801391363144,-0.15760323405265808
1772739594889692400,7.1746923828125,0.018325956538319588,-0.024434609338641167,-0.16737708449363708
1772739594900055800,7.185055908203125,0.02321287989616394,-0.02321287989616394,-0.18325957655906677
1772739594909764400,7.194764404296875,0.025656340643763542,-0.01466076634824276,-0.1918116807937622
1772739594919815700,7.204815673828125,0.02687807008624077,-0.010995574295520782,-0.19547687470912933
1772739594929804800,7.2148046875,0.0354301854968071,-0.006108652334660292,-0.19425514340400696
1772739594959905800,7.24490576171875,0.024434609338641167,-0.00855211354792118,-0.1368338167667389
1772739594969890800,7.254890869140625,0.02321287989616394,-0.010995574295520782,-0.12339477986097336
1772739594979925000,7.264925048828125,0.015882495790719986,-0.018325956538319588,-0.10506882518529892
1772739594989927200,7.27492724609375,0.013439035043120384,-0.019547687843441963,-0.08674286305904388
1772739595000306200,7.28530615234375,0.013439035043120384,-0.019547687843441963,-0.0708603709936142
1772739595009989000,7.294989013671875,0.01466076634824276,-0.015882495790719986,-0.05619960278272629
1772739595020639000,7.305638916015625,0.018325956538319588,-0.019547687843441963,-0.05375614017248154
1772739595030060300,7.315060302734375,0.021991148591041565,-0.025656340643763542,-0.06352998316287994
1772739595060207600,7.34520751953125,0.025656340643763542,-0.00855211354792118,-0.05253441259264946
1772739595070226200,7.35522607421875,0.030543262138962746,0,-0.0403171069920063
1772739595080303000,7.36530322265625,0.030543262138962746,0.00855211354792118,-0.02076941914856434
1772739595090687700,7.375687744140625,0.0354301854968071,0.00366519158706069,0.019547687843441963
1772739595100665300,7.385665283203125,0.05497787147760391,-0.004886921960860491,0.07208210229873657
1772739595110386200,7.39538623046875,0.07696902006864548,0.0012217304902151227,0.11972958594560623
1772739595120465200,7.405465087890625,0.11362093687057495,0,0.22357667982578278
1772739595130485200,7.4154853515625,0.15271630883216858,-0.0354301854968071,0.3701843321323395
1772739595160637000,7.445636962890625,0.28588494658470154,-0.12950342893600464,0.5998696684837341
1772739595170647300,7.455647216796875,0.3494149148464203,-0.14782938361167908,0.6120869517326355
1772739595181307000,7.466306884765625,0.3066543638706207,-0.15027284622192383,0.5705481171607971
1772739595190726700,7.4757265625,0.31154128909111023,-0.16493362188339233,0.5375614166259766
1772739595203631600,7.488631591796875,0.2968805134296417,-0.18570303916931152,0.4789183437824249
1772739595211094500,7.496094482421875,0.25534167885780334,-0.21135938167572021,0.37140607833862305
1772739595220898000,7.50589794921875,0.2015855312347412,-0.2223549485206604,0.2773328125476837
1772739595230944000,7.515944091796875,0.18448130786418915,-0.25045475363731384,0.2125810980796814
1772739595241007600,7.526007568359375,0.14905111491680145,-0.28099802136421204,0.15760323405265808
1772739595261044200,7.546044189453125,0.0708603709936142,-0.35063666105270386,0.15515977144241333
1772739595271066000,7.556066162109375,0.03176499158143997,-0.3885102868080139,0.1918116807937622
1772739595281125000,7.566125,-0.0012217304902151227,-0.42271876335144043,0.251676470041275
1772739595291119900,7.576119873046875,-0.036651913076639175,-0.4141666293144226,0.27488934993743896
1772739595301471200,7.58647119140625,-0.051312681287527084,-0.40194934606552124,0.2577851414680481
1772739595311182300,7.596182373046875,-0.05864306539297104,-0.3689626157283783,0.22968533635139465
1772739595321245200,7.6062451171875,-0.06475171446800232,-0.3090978264808655,0.17837265133857727
1772739595331242000,7.616241943359375,-0.0757472887635231,-0.2382374405860901,0.08918632566928864
1772739595341889500,7.6268896484375,-0.10995574295520782,-0.12461651116609573,-0.03298672288656235
1772739595363014700,7.6480146484375,-0.07696902006864548,0.006108652334660292,-0.10751228034496307
1772739595371373000,7.656373046875,-0.059864792972803116,0.05497787147760391,-0.1417207419872284
1772739595381423600,7.666423583984375,-0.042760565876960754,0.09651670604944229,-0.1612684279680252
1772739595391429600,7.6764296875,-0.03420845419168472,0.13927727937698364,-0.17470745742321014
1772739595401799000,7.686798828125,-0.028099801391363144,0.18081611394882202,-0.16737708449363708
1772739595411476200,7.696476318359375,-0.02687807008624077,0.21135938167572021,-0.1319468915462494
1772739595421514800,7.7065146484375,-0.01710422709584236,0.2272418737411499,-0.08674286305904388
1772739595431535900,7.716535888671875,-0.00855211354792118,0.2321287989616394,-0.051312681287527084
1772739595441593000,7.726593017578125,-0.0012217304902151227,0.23335053026676178,-0.045204028487205505
1772739595471653400,7.7566533203125,-0.021991148591041565,0.1722639948129654,-0.006108652334660292
1772739595481710000,7.7667099609375,-0.028099801391363144,0.14049901068210602,-0.025656340643763542
1772739595491700200,7.7767001953125,-0.03298672288656235,0.10873401165008545,-0.04886921867728233
1772739595502650400,7.787650390625,-0.0403171069920063,0.08429940044879913,-0.0708603709936142
1772739595512772600,7.797772705078125,-0.04886921867728233,0.05864306539297104,-0.0757472887635231
1772739595525364700,7.81036474609375,-0.05375614017248154,0.012217304669320583,-0.051312681287527084
1772739595532850000,7.817849853515625,-0.05253441259264946,-0.00855211354792118,-0.03176499158143997
1772739595542894300,7.827894287109375,-0.04764748737215996,-0.045204028487205505,0.004886921960860491
1772739595552909300,7.837909423828125,-0.051312681287527084,-0.07696902006864548,0.0403171069920063
1772739595583010000,7.868010009765625,-0.11728613078594208,-0.10018189996480942,0.00855211354792118
1772739595593032700,7.87803271484375,-0.1319468915462494,-0.09896016865968704,-0.030543262138962746
1772739595603414000,7.8884140625,-0.1160643994808197,-0.09285151958465576,-0.07452555745840073
1772739595613074400,7.898074462890625,-0.10995574295520782,-0.08185594528913498,-0.11362093687057495
1772739595623129900,7.9081298828125,-0.10506882518529892,-0.06352998316287994,-0.14782938361167908
1772739595633177300,7.91817724609375,-0.10384709388017654,-0.05497787147760391,-0.14905111491680145
1772739595643234300,7.928234375,-0.10506882518529892,-0.04642575979232788,-0.13805554807186127
1772739595653220900,7.938220947265625,-0.07330382615327835,-0.039095375686883926,-0.10262536257505417
1772739595663866000,7.9488662109375,-0.03787364438176155,-0.025656340643763542,-0.059864792972803116
1772739595684937200,7.969937255859375,-0.0024434609804302454,0.00733038317412138,0.03298672288656235
1772739595693343200,7.97834326171875,0,0.00855211354792118,0.05619960278272629
1772739595703691000,7.98869091796875,-0.00366519158706069,0.0012217304902151227,0.06352998316287994
1772739595713405400,7.998405517578125,-0.0012217304902151227,-0.004886921960860491,0.051312681287527084
1772739595723468300,8.00846826171875,-0.0024434609804302454,0.0012217304902151227,0.018325956538319588
1772739595733450800,8.01845068359375,-0.0012217304902151227,0.00366519158706069,-0.00855211354792118
1772739595743478800,8.028478759765624,0,0,-0.015882495790719986
1772739595753507800,8.0385078125,0.0012217304902151227,-0.006108652334660292,-0.010995574295520782
1772739595763556900,8.048556884765626,0.0024434609804302454,-0.006108652334660292,-0.012217304669320583
1772739595793580800,8.078580810546875,-0.004886921960860491,-0.01710422709584236,-0.01466076634824276
1772739595803952400,8.088952392578125,-0.013439035043120384,-0.03298672288656235,-0.015882495790719986
1772739595813612500,8.098612548828125,-0.019547687843441963,-0.051312681287527084,-0.030543262138962746
1772739595824252000,8.109251953125,-0.03298672288656235,-0.05864306539297104,-0.0403171069920063
1772739595833653200,8.1186533203125,-0.04764748737215996,-0.05619960278272629,-0.06963863968849182
1772739595846182000,8.131181884765626,-0.1771509200334549,-0.009773843921720982,-0.10506882518529892
1772739595853708500,8.13870849609375,-0.1466076523065567,-0.03176499158143997,-0.12461651116609573
1772739595863747600,8.14874755859375,-0.10995574295520782,-0.013439035043120384,-0.14416420459747314
1772739595873752300,8.15875244140625,-0.10506882518529892,0.00855211354792118,-0.1466076523065567
1772739595893788000,8.178787841796876,-0.08552113175392151,0.03176499158143997,-0.09040805697441101
1772739595904132900,8.1891328125,-0.03420845419168472,0.036651913076639175,-0.04764748737215996
1772739595913844700,8.1988447265625,-0.0024434609804302454,0.05253441259264946,-0.01710422709584236
1772739595923901700,8.208901611328125,0.00366519158706069,0.0659734457731247,0.00855211354792118
1772739595933894000,8.218893798828125,0.006108652334660292,0.0659734457731247,0.024434609338641167
1772739595943942000,8.22894189453125,0.00855211354792118,0.0659734457731247,0.0024434609804302454
1772739595953957600,8.23895751953125,0.004886921960860491,0.0659734457731247,-0.02321287989616394
1772739595964020200,8.249020263671875,0.010995574295520782,0.06475171446800232,-0.05619960278272629
1772739595974013000,8.259012939453125,0.019547687843441963,0.06475171446800232,-0.07696902006864548
1772739595994079700,8.279079833984374,0.013439035043120384,0.04764748737215996,-0.09285151958465576
1772739596006089500,8.29108935546875,-0.0012217304902151227,0.04153883829712868,-0.08918632566928864
1772739596014158600,8.29915869140625,-0.08185594528913498,0.04642575979232788,-0.042760565876960754
1772739596024194300,8.3091943359375,-0.1417207419872284,0.02687807008624077,-0.004886921960860491
1772739596034231000,8.31923095703125,-0.13805554807186127,0.010995574295520782,0.03420845419168472
1772739596044286500,8.329286376953124,-0.11728613078594208,0.015882495790719986,0.06719517707824707
1772739596054274300,8.3392744140625,-0.06475171446800232,0.00733038317412138,0.09040805697441101
1772739596064309800,8.349309814453125,-0.02932153269648552,0.01466076634824276,0.0806342139840126
1772739596074328600,8.35932861328125,-0.004886921960860491,0.04886921867728233,0.01710422709584236
1772739596104737500,8.389737548828125,0.010995574295520782,0.05864306539297104,-0.09407325088977814
1772739596114445600,8.399445556640625,0.01710422709584236,0.06352998316287994,-0.09529497474431992
1772739596124496000,8.409495849609375,0.018325956538319588,0.05619960278272629,-0.10506882518529892
1772739596134482000,8.41948193359375,0.01710422709584236,0.051312681287527084,-0.1160643994808197
1772739596145122600,8.43012255859375,0.015882495790719986,0.05009094998240471,-0.1062905490398407
1772739596154525200,8.439525146484375,0.019547687843441963,0.05619960278272629,-0.07941248267889023
1772739596167064600,8.452064697265625,0.028099801391363144,0.0757472887635231,-0.04398229718208313
1772739596174592300,8.45959228515625,0.03420845419168472,0.08307767659425735,-0.03420845419168472
1772739596204997000,8.4899970703125,0.04764748737215996,0.0659734457731247,0.07819075137376785
1772739596214678000,8.499677978515624,0.051312681287527084,0.07330382615327835,0.0806342139840126
1772739596224713000,8.509712890625,0.05742133408784866,0.07941248267889023,0.07819075137376785
1772739596234727400,8.5197275390625,0.059864792972803116,0.09285151958465576,0.0757472887635231
1772739596244777500,8.529777587890624,0.06475171446800232,0.09896016865968704,0.0806342139840126
1772739596254772500,8.5397724609375,0.0659734457731247,0.10506882518529892,0.08918632566928864
1772739596264802600,8.549802490234375,0.06352998316287994,0.11728613078594208,0.06719517707824707
1772739596274810600,8.559810546875,0.059864792972803116,0.11972958594560623,0.0659734457731247
1772739596284865300,8.569865234375,0.05619960278272629,0.1258382350206375,0.06108652427792549
1772739596314903600,8.599903564453125,0.05375614017248154,0.14538592100143433,-0.012217304669320583
1772739596326548500,8.611548583984375,0.04764748737215996,0.14905111491680145,-0.06719517707824707
1772739596334956800,8.619956787109375,0.04153883829712868,0.15760323405265808,-0.10384709388017654
1772739596344990000,8.629989990234375,0.045204028487205505,0.17348572611808777,-0.1563815027475357
1772739596355007500,8.640007568359374,0.03787364438176155,0.1771509200334549,-0.19914206862449646
1772739596365058600,8.65005859375,0.0354301854968071,0.1771509200334549,-0.23090706765651703
1772739596375044600,8.660044677734374,0.024434609338641167,0.1661553531885147,-0.251676470041275
1772739596385076700,8.67007666015625,0.015882495790719986,0.14905111491680145,-0.27122417092323303
1772739596415172900,8.7001728515625,-0.015882495790719986,0.09040805697441101,-0.2382374405860901
1772739596425205200,8.710205322265624,-0.01466076634824276,0.07819075137376785,-0.21868975460529327
1772739596435243000,8.720242919921875,-0.01466076634824276,0.07208210229873657,-0.21135938167572021
1772739596445306600,8.730306640625,-0.018325956538319588,0.0659734457731247,-0.21991148591041565
1772739596455290400,8.740290283203125,-0.006108652334660292,0.0659734457731247,-0.22602014243602753
1772739596465930200,8.75093017578125,0.0012217304902151227,0.06719517707824707,-0.21991148591041565
1772739596475340000,8.760340087890626,0.004886921960860491,0.06108652427792549,-0.21502456068992615
1772739596487880000,8.7728798828125,0.006108652334660292,0.05009094998240471,-0.19914206862449646
1772739596515478300,8.800478271484375,0.00855211354792118,0.025656340643763542,-0.24068090319633484
1772739596525533400,8.810533447265625,0.01710422709584236,0.039095375686883926,-0.31520646810531616
1772739596535522300,8.820522216796874,0.02687807008624077,0.06475171446800232,-0.38606682419776917
1772739596545604400,8.830604248046875,0.02932153269648552,0.09162978827953339,-0.43127086758613586
1772739596555626200,8.840626220703125,0.02932153269648552,0.11850785464048386,-0.47769662737846375
1772739596565684700,8.850684814453125,0.02687807008624077,0.1417207419872284,-0.5057964324951172
1772739596575678000,8.860677978515625,0.028099801391363144,0.16004669666290283,-0.5338962078094482
1772739596586124300,8.871124267578125,0.02321287989616394,0.1514945775270462,-0.5351179838180542
1772739596595738600,8.880738525390624,0.01466076634824276,0.14416420459747314,-0.5363397002220154
1772739596626434600,8.9114345703125,-0.01710422709584236,0.21135938167572021,-0.5534439086914062
1772739596635858000,8.92085791015625,-0.0757472887635231,0.20036379992961884,-0.5180137157440186
1772739596647566600,8.932566650390624,-0.12217304855585098,0.18570303916931152,-0.4398229718208313
1772739596655921000,8.9409208984375,-0.09651670604944229,0.16493362188339233,-0.3543018400669098
1772739596665954800,8.950954833984374,-0.09773843735456467,0.16249015927314758,-0.2528982162475586
1772739596675968000,8.960968017578125,-0.14905111491680145,0.1722639948129654,-0.1612684279680252
1772739596686016300,8.971016357421876,-0.19303341209888458,0.17592918872833252,-0.11239920556545258
1772739596695997400,8.98099755859375,-0.2076941877603531,0.16982053220272064,-0.09773843735456467
1772739596706346200,8.99134619140625,-0.2626720666885376,0.1820378452539444,-0.15271630883216858
1772739596726098700,9.0110986328125,-0.2968805134296417,0.19547687470912933,-0.25045475363731384
1772739596736097000,9.021096923828125,-0.3017674386501312,0.19303341209888458,-0.2577851414680481
1772739596746178600,9.031178466796876,-0.27000242471694946,0.17959438264369965,-0.2223549485206604
1772739596756243500,9.041243408203124,-0.2382374405860901,0.14416420459747314,-0.1563815027475357
1772739596766300700,9.05130078125,-0.16737708449363708,0.08796459436416626,-0.07941248267889023
1772739596776284400,9.061284423828125,-0.10262536257505417,0.039095375686883926,0.0024434609804302454
1772739596786936000,9.07193603515625,-0.04764748737215996,-0.0012217304902151227,0.05619960278272629
1772739596796331800,9.081331787109375,-0.03420845419168472,-0.015882495790719986,0.10751228034496307
1772739596826432300,9.111432373046876,-0.08552113175392151,-0.04153883829712868,0.12828169763088226
1772739596836471600,9.121471435546875,-0.06108652427792549,-0.036651913076639175,0.07696902006864548
1772739596846528800,9.13152880859375,-0.06841690838336945,-0.028099801391363144,0.04642575979232788
1772739596856521700,9.141521728515626,-0.09773843735456467,-0.00366519158706069,0.02687807008624077
1772739596866572000,9.151572021484375,-0.10384709388017654,0,0.02687807008624077
1772739596876599000,9.16159912109375,-0.06108652427792549,-0.02076941914856434,0.0403171069920063
1772739596886671600,9.171671630859375,-0.07330382615327835,-0.024434609338641167,0.03420845419168472
1772739596896676000,9.181676025390624,-0.1111774742603302,-0.013439035043120384,0.04153883829712868
1772739596907139600,9.1921396484375,-0.1368338167667389,-0.01466076634824276,0.05864306539297104
1772739596926817800,9.21181787109375,-0.13439035415649414,-0.02076941914856434,0.059864792972803116
1772739596936842800,9.2218427734375,-0.11850785464048386,-0.03420845419168472,0.059864792972803116
1772739596947515100,9.23251513671875,-0.1771509200334549,-0.018325956538319588,0.0403171069920063
1772739596956925000,9.241925048828126,-0.2125810980796814,-0.006108652334660292,0.02687807008624077
1772739596968590800,9.2535908203125,-0.17348572611808777,-0.018325956538319588,0.004886921960860491
1772739596977020400,9.2620205078125,-0.1661553531885147,-0.021991148591041565,-0.009773843921720982
1772739596987091200,9.27209130859375,-0.18081611394882202,-0.01466076634824276,-0.021991148591041565
1772739596997100300,9.282100341796875,-0.14905111491680145,-0.024434609338641167,-0.010995574295520782
1772739597017201000,9.302200927734376,-0.15515977144241333,-0.004886921960860491,0.045204028487205505
1772739597027301400,9.31230126953125,-0.13316862285137177,-0.01466076634824276,0.08796459436416626
1772739597047405000,9.332405029296876,-0.04886921867728233,-0.04153883829712868,0.14538592100143433
1772739597057444400,9.3424443359375,-0.06475171446800232,-0.03176499158143997,0.14905111491680145
1772739597067533000,9.352532958984375,-0.08429940044879913,-0.03420845419168472,0.1417207419872284
1772739597077561900,9.362561767578125,-0.10873401165008545,-0.0354301854968071,0.10873401165008545
1772739597087637200,9.37263720703125,-0.08307767659425735,-0.05009094998240471,0.07452555745840073
1772739597097682400,9.382682373046874,-0.08552113175392151,-0.04642575979232788,0.02932153269648552
1772739597108695600,9.393695556640624,-0.1160643994808197,-0.02687807008624077,-0.013439035043120384
1772739597117810400,9.402810546875,-0.08552113175392151,-0.04153883829712868,-0.03787364438176155
1772739597130375000,9.415375,-0.05497787147760391,-0.04886921867728233,-0.05742133408784866
1772739597137970000,9.422969970703125,-0.05253441259264946,-0.04642575979232788,-0.0708603709936142
1772739597148050700,9.43305078125,-0.05619960278272629,-0.04398229718208313,-0.0806342139840126
1772739597168146700,9.453146728515625,-0.03420845419168472,-0.05375614017248154,-0.09773843735456467
1772739597178191000,9.463191162109375,-0.02687807008624077,-0.05619960278272629,-0.10018189996480942
1772739597188276500,9.4732763671875,-0.02321287989616394,-0.05864306539297104,-0.09529497474431992
1772739597198316000,9.48331591796875,-0.02321287989616394,-0.06719517707824707,-0.0806342139840126
1772739597208708900,9.493708984375,-0.02932153269648552,-0.0806342139840126,-0.06719517707824707
1772739597218429000,9.503428955078125,-0.03420845419168472,-0.09162978827953339,-0.0659734457731247
1772739597228527600,9.513527587890625,-0.036651913076639175,-0.10018189996480942,-0.07452555745840073
1772739597248654000,9.533654052734375,-0.036651913076639175,-0.10506882518529892,-0.0757472887635231
1772739597258664000,9.543663818359375,-0.03298672288656235,-0.10018189996480942,-0.05864306539297104
1772739597269329400,9.554329345703126,-0.025656340643763542,-0.08552113175392151,-0.04398229718208313
1772739597278719200,9.56371923828125,-0.018325956538319588,-0.0659734457731247,-0.028099801391363144
1772739597290392000,9.57539208984375,-0.010995574295520782,-0.05009094998240471,-0.02932153269648552
1772739597298781000,9.583781005859375,-0.009773843921720982,-0.045204028487205505,-0.02932153269648552
1772739597309151700,9.59415185546875,-0.00366519158706069,-0.03420845419168472,-0.030543262138962746
1772739597318841600,9.603841552734375,-0.0012217304902151227,-0.025656340643763542,-0.03420845419168472
1772739597328880000,9.613880126953125,0.00366519158706069,-0.02076941914856434,-0.042760565876960754
1772739597348958500,9.63395849609375,0.0012217304902151227,-0.025656340643763542,-0.04764748737215996
1772739597358973700,9.6439736328125,0,-0.02687807008624077,-0.05864306539297104
1772739597369020400,9.6540205078125,0,-0.024434609338641167,-0.0708603709936142
1772739597379041500,9.66404150390625,0.0012217304902151227,-0.018325956538319588,-0.07452555745840073
1772739597389103600,9.674103515625,0.00366519158706069,-0.01466076634824276,-0.07819075137376785
1772739597399108400,9.6841083984375,0.00855211354792118,-0.006108652334660292,-0.0757472887635231
1772739597409469700,9.6944697265625,0.01466076634824276,0.00733038317412138,-0.0659734457731247
1772739597419167200,9.704167236328125,0.021991148591041565,0.021991148591041565,-0.05619960278272629
1772739597429831000,9.714830810546875,0.024434609338641167,0.02076941914856434,-0.059864792972803116
1772739597451741000,9.736740966796875,0.019547687843441963,0.006108652334660292,-0.09040805697441101
1772739597469386000,9.754385986328124,0.010995574295520782,-0.013439035043120384,-0.10384709388017654
1772739597479389200,9.76438916015625,0.010995574295520782,-0.019547687843441963,-0.10873401165008545
1772739597489432800,9.774432861328124,0.013439035043120384,-0.025656340643763542,-0.1111774742603302
1772739597499445800,9.78444580078125,0.02076941914856434,-0.03298672288656235,-0.12095131725072861
1772739597509834500,9.79483447265625,0.019547687843441963,-0.03176499158143997,-0.13316862285137177
1772739597521577500,9.806577392578125,0.015882495790719986,-0.02321287989616394,-0.13805554807186127
1772739597531625500,9.81662548828125,0.013439035043120384,-0.019547687843441963,-0.13072516024112701
1772739597551705900,9.836705810546874,0.01466076634824276,-0.03176499158143997,-0.09162978827953339
1772739597561693200,9.846693115234375,0.012217304669320583,-0.039095375686883926,-0.07941248267889023
1772739597571724300,9.856724365234374,0.004886921960860491,-0.039095375686883926,-0.07452555745840073
1772739597581723600,9.8667236328125,-0.0012217304902151227,-0.030543262138962746,-0.06963863968849182
1772739597592383700,9.8773837890625,-0.0024434609804302454,-0.01710422709584236,-0.05497787147760391
1772739597601781000,9.886781005859374,0,-0.00733038317412138,-0.04153883829712868
1772739597613721600,9.8987216796875,0.0024434609804302454,0.00855211354792118,0.004886921960860491
1772739597621859600,9.906859619140626,0.00366519158706069,0.010995574295520782,0.01710422709584236
1772739597631913500,9.91691357421875,0.00366519158706069,0.009773843921720982,0.028099801391363144
1772739597651962600,9.936962646484375,-0.00366519158706069,0.0012217304902151227,0.04642575979232788
1772739597661968000,9.9469677734375,-0.006108652334660292,0,0.05253441259264946
1772739597672016400,9.957016357421875,-0.009773843921720982,-0.004886921960860491,0.04886921867728233
1772739597682003500,9.96700341796875,-0.010995574295520782,-0.004886921960860491,0.042760565876960754
1772739597692034000,9.977033935546874,-0.012217304669320583,-0.009773843921720982,0.03176499158143997
1772739597702049500,9.987049560546875,-0.012217304669320583,-0.012217304669320583,0.01466076634824276
1772739597712409300,9.997409423828126,-0.00855211354792118,-0.00733038317412138,0
1772739597722098000,10.007097900390624,-0.006108652334660292,-0.0024434609804302454,-0.00855211354792118
1772739597732134100,10.017134033203124,-0.004886921960860491,0,-0.013439035043120384
1772739597742136600,10.027136474609375,-0.004886921960860491,-0.0012217304902151227,-0.01710422709584236
1772739597762189800,10.04718994140625,-0.0024434609804302454,0.0024434609804302454,0.0024434609804302454
1772739597774707000,10.05970703125,-0.0024434609804302454,0,0.00733038317412138
1772739597792315000,10.07731494140625,-0.00366519158706069,-0.0024434609804302454,0
1772739597802310000,10.087309814453125,-0.006108652334660292,-0.00733038317412138,-0.006108652334660292
1772739597812660700,10.09766064453125,-0.00733038317412138,-0.009773843921720982,-0.012217304669320583
1772739597822360800,10.10736083984375,-0.00855211354792118,-0.00855211354792118,-0.013439035043120384
1772739597832406500,10.117406494140624,-0.010995574295520782,-0.013439035043120384,-0.012217304669320583
1772739597842401800,10.12740185546875,-0.012217304669320583,-0.01710422709584236,-0.010995574295520782
1772739597862448000,10.1474482421875,-0.02076941914856434,-0.030543262138962746,-0.012217304669320583
1772739597872497400,10.157497314453124,-0.028099801391363144,-0.0403171069920063,-0.013439035043120384
1772739597882483700,10.167483642578125,-0.030543262138962746,-0.04642575979232788,-0.01466076634824276
1772739597892523000,10.17752294921875,-0.030543262138962746,-0.04764748737215996,-0.013439035043120384
1772739597902648600,10.187648681640624,-0.02687807008624077,-0.04398229718208313,-0.0024434609804302454
1772739597913499400,10.19849951171875,-0.025656340643763542,-0.039095375686883926,-0.00366519158706069
1772739597922591000,10.207591064453124,-0.021991148591041565,-0.0354301854968071,-0.009773843921720982
1772739597934259200,10.21925927734375,-0.01710422709584236,-0.025656340643763542,-0.018325956538319588
1772739597952708600,10.23770849609375,-0.006108652334660292,-0.006108652334660292,-0.024434609338641167
1772739597972729600,10.2577294921875,0.0024434609804302454,0.00855211354792118,-0.004886921960860491
1772739597982733600,10.267733642578126,0.00366519158706069,0.012217304669320583,0.0024434609804302454
1772739597992794600,10.277794677734375,0.004886921960860491,0.015882495790719986,0.00855211354792118
1772739598013130500,10.298130615234374,0.00855211354792118,0.028099801391363144,0.004886921960860491
1772739598022824400,10.307824462890625,0.00855211354792118,0.028099801391363144,-0.004886921960860491
1772739598032876300,10.317876220703125,0.009773843921720982,0.03298672288656235,-0.006108652334660292
1772739598042887700,10.3278876953125,0.010995574295520782,0.03787364438176155,-0.01710422709584236
1772739598052924400,10.33792431640625,0.012217304669320583,0.04153883829712868,-0.018325956538319588
1772739598073606700,10.358606689453126,0.013439035043120384,0.04764748737215996,-0.0024434609804302454
1772739598083006500,10.36800634765625,0.012217304669320583,0.045204028487205505,-0.004886921960860491
1772739598095520500,10.3805205078125,0.00855211354792118,0.042760565876960754,0.0012217304902151227
1772739598103093500,10.388093505859375,0.00733038317412138,0.04398229718208313,0.006108652334660292
1772739598113465000,10.398465087890624,0.0012217304902151227,0.04398229718208313,0.0024434609804302454
1772739598123157500,10.408157470703125,-0.00733038317412138,0.0403171069920063,0
1772739598133198300,10.4181982421875,-0.02687807008624077,0.05742133408784866,-0.00366519158706069
1772739598143230200,10.428230224609376,-0.03298672288656235,0.05009094998240471,-0.009773843921720982
1772739598153273000,10.438273193359375,0.00366519158706069,0.03787364438176155,-0.012217304669320583
1772739598163277300,10.44827734375,0.010995574295520782,0.045204028487205505,-0.01466076634824276
1772739598173321000,10.458321044921876,0.010995574295520782,0.04398229718208313,-0.006108652334660292
1772739598183344000,10.46834423828125,0.013439035043120384,0.0403171069920063,0.00366519158706069
1772739598193404200,10.478404052734374,0.01466076634824276,0.03787364438176155,0.013439035043120384
1772739598203394800,10.488394775390624,0.012217304669320583,0.03176499158143997,0.019547687843441963
1772739598213748200,10.498748291015625,0.009773843921720982,0.025656340643763542,0.01710422709584236
1772739598223447600,10.508447509765626,0.00733038317412138,0.015882495790719986,0.00733038317412138
1772739598234113500,10.519113525390624,0.004886921960860491,0.009773843921720982,-0.0024434609804302454
1772739598243513300,10.528513427734374,0.00366519158706069,0.004886921960860491,-0.015882495790719986
1772739598255144400,10.54014453125,0.0012217304902151227,-0.0012217304902151227,-0.039095375686883926
1772739598263574800,10.54857470703125,0,-0.004886921960860491,-0.04886921867728233
1772739598283630000,10.568630126953124,-0.0024434609804302454,-0.004886921960860491,-0.09162978827953339
1772739598293672700,10.578672607421876,-0.0024434609804302454,-0.00733038317412138,-0.10262536257505417
1772739598303683600,10.58868359375,-0.0012217304902151227,-0.00366519158706069,-0.10506882518529892
1772739598314058000,10.59905810546875,0.0012217304902151227,0,-0.10751228034496307
1772739598323762200,10.60876220703125,0.004886921960860491,0.0024434609804302454,-0.10384709388017654
1772739598333805800,10.618805908203125,0.006108652334660292,0.0024434609804302454,-0.1014036312699318
1772739598343826000,10.628825927734376,0.006108652334660292,0.00366519158706069,-0.09529497474431992
1772739598353879800,10.6388798828125,0.004886921960860491,0.00366519158706069,-0.09162978827953339
1772739598363874300,10.648874267578124,0.004886921960860491,0,-0.08918632566928864
1772739598373927700,10.658927734375,0.00366519158706069,-0.0024434609804302454,-0.07941248267889023
1772739598383938000,10.66893798828125,-0.0012217304902151227,-0.010995574295520782,-0.08307767659425735
1772739598394606800,10.67960693359375,-0.006108652334660292,-0.02076941914856434,-0.09651670604944229
1772739598403998200,10.688998291015626,-0.004886921960860491,-0.02076941914856434,-0.10262536257505417
1772739598416851200,10.701851318359376,-0.00855211354792118,-0.021991148591041565,-0.13072516024112701
1772739598434134500,10.719134521484374,-0.004886921960860491,-0.00855211354792118,-0.15393804013729095
1772739598444150300,10.729150390625,0.0012217304902151227,0.006108652334660292,-0.15515977144241333
1772739598454212600,10.739212646484376,0.006108652334660292,0.01466076634824276,-0.15882496535778046
1772739598464225300,10.749225341796874,0.012217304669320583,0.02687807008624077,-0.1514945775270462
1772739598494381800,10.7793818359375,0.010995574295520782,0.02932153269648552,-0.14049901068210602
1772739598504382200,10.78938232421875,0.010995574295520782,0.03176499158143997,-0.1368338167667389
1772739598514777000,10.799777099609376,0.01466076634824276,0.0354301854968071,-0.1319468915462494
1772739598524483300,10.8094833984375,0.01466076634824276,0.036651913076639175,-0.1270599663257599
1772739598534548200,10.81954833984375,0.02076941914856434,0.04764748737215996,-0.11972958594560623
1772739598544569600,10.829569580078125,0.02321287989616394,0.051312681287527084,-0.1062905490398407
1772739598555265000,10.84026513671875,0.02687807008624077,0.051312681287527084,-0.08429940044879913
1772739598564658700,10.84965869140625,0.02687807008624077,0.045204028487205505,-0.04398229718208313
1772739598584738300,10.86973828125,0.02321287989616394,0.025656340643763542,0.036651913076639175
1772739598594816000,10.87981591796875,0.019547687843441963,0.015882495790719986,0.06230825558304787
1772739598604820200,10.8898203125,0.013439035043120384,0.004886921960860491,0.06963863968849182
1772739598615201800,10.900201904296875,0.00855211354792118,-0.00855211354792118,0.06719517707824707
1772739598624889300,10.909889404296875,0,-0.01710422709584236,0.04886921867728233
1772739598634958300,10.919958251953124,-0.00366519158706069,-0.024434609338641167,0.02076941914856434
1772739598644970000,10.929969970703125,-0.00733038317412138,-0.028099801391363144,-0.00733038317412138
1772739598655015000,10.940014892578125,-0.004886921960860491,-0.019547687843441963,-0.02687807008624077
1772739598665030700,10.95003076171875,0,-0.006108652334660292,-0.03176499158143997
1772739598675089400,10.96008935546875,0.00366519158706069,0,-0.03298672288656235
1772739598695122700,10.980122802734375,-0.0012217304902151227,-0.0012217304902151227,-0.009773843921720982
1772739598705134800,10.990134765625,-0.00733038317412138,-0.012217304669320583,0.013439035043120384
1772739598716117500,11.001117431640624,-0.010995574295520782,-0.013439035043120384,0.04398229718208313
1772739598725194200,11.0101943359375,-0.018325956538319588,-0.018325956538319588,0.06352998316287994
1772739598737701000,11.022701171875,-0.024434609338641167,-0.028099801391363144,0.0757472887635231
1772739598745248000,11.030248046875,-0.024434609338641167,-0.02932153269648552,0.07696902006864548
1772739598755297300,11.04029736328125,-0.024434609338641167,-0.024434609338641167,0.07696902006864548
1772739598765292300,11.050292236328126,-0.02076941914856434,-0.010995574295520782,0.08796459436416626
1772739598775320600,11.060320556640624,-0.013439035043120384,0.0024434609804302454,0.1014036312699318
1772739598785332500,11.07033251953125,-0.00733038317412138,0.015882495790719986,0.1014036312699318
1772739598805378000,11.0903779296875,-0.00855211354792118,0.02076941914856434,0.10751228034496307
1772739598815737000,11.100737060546875,-0.009773843921720982,0.018325956538319588,0.11362093687057495
1772739598825427200,11.11042724609375,-0.010995574295520782,0.01710422709584236,0.12461651116609573
1772739598835473400,11.120473388671876,-0.012217304669320583,0.015882495790719986,0.13439035415649414
1772739598845483800,11.13048388671875,-0.024434609338641167,0.01466076634824276,0.13072516024112701
1772739598855518700,11.140518798828126,-0.19914206862449646,0.09407325088977814,0.09162978827953339
1772739598865528800,11.15052880859375,-0.10995574295520782,0.06475171446800232,0.09529497474431992
1772739598876181000,11.161180908203125,-0.01710422709584236,0.02932153269648552,0.07941248267889023
1772739598885565700,11.170565673828126,0.0024434609804302454,0.03420845419168472,0.06719517707824707
1772739598905637400,11.190637451171876,-0.06841690838336945,0.06352998316287994,0.03176499158143997
1772739598916000800,11.201000732421875,-0.1062905490398407,0.08429940044879913,0.02321287989616394
1772739598925680400,11.210680419921875,-0.05619960278272629,0.0806342139840126,0.02076941914856434
1772739598935711000,11.2207109375,-0.03787364438176155,0.08674286305904388,0.01466076634824276
1772739598945711000,11.230711181640626,-0.05619960278272629,0.10018189996480942,0.0024434609804302454
1772739598955771000,11.24077099609375,-0.05742133408784866,0.09040805697441101,-0.012217304669320583
1772739598965755600,11.250755615234375,-0.039095375686883926,0.06352998316287994,-0.0024434609804302454
1772739598975781000,11.260781005859375,-0.009773843921720982,0.015882495790719986,0.006108652334660292
1772739598985774300,11.2707744140625,-0.012217304669320583,0.0012217304902151227,-0.0024434609804302454
1772739598995812400,11.280812255859376,-0.01466076634824276,-0.00733038317412138,-0.006108652334660292
1772739599016140800,11.301140869140625,-0.021991148591041565,-0.02932153269648552,-0.00733038317412138
1772739599025846300,11.31084619140625,-0.019547687843441963,-0.02687807008624077,0.010995574295520782
1772739599036540400,11.32154052734375,-0.01466076634824276,-0.02076941914856434,0.012217304669320583
1772739599046352600,11.3313525390625,-0.013439035043120384,-0.010995574295520782,0.025656340643763542
1772739599058517000,11.34351708984375,-0.00733038317412138,-0.0024434609804302454,0.02932153269648552
1772739599066056400,11.351056396484376,-0.009773843921720982,0,0.010995574295520782
1772739599076108500,11.361108642578126,-0.05009094998240471,0.00733038317412138,-0.00366519158706069
1772739599086105900,11.37110595703125,-0.04764748737215996,0.010995574295520782,-0.004886921960860491
1772739599096187600,11.381187744140625,-0.019547687843441963,-0.009773843921720982,-0.01710422709584236
1772739599106209300,11.391209228515624,-0.02076941914856434,-0.02321287989616394,-0.02687807008624077
1772739599126308000,11.41130810546875,-0.03298672288656235,-0.03298672288656235,-0.05497787147760391
1772739599136382700,11.4213828125,-0.025656340643763542,-0.04153883829712868,-0.06841690838336945
1772739599146394600,11.43139453125,-0.028099801391363144,-0.05009094998240471,-0.08429940044879913
1772739599156490800,11.44149072265625,-0.02932153269648552,-0.05864306539297104,-0.09529497474431992
1772739599166483700,11.451483642578125,-0.02932153269648552,-0.05864306539297104,-0.1014036312699318
1772739599176564200,11.461564208984376,-0.025656340643763542,-0.05253441259264946,-0.10018189996480942
1772739599186581000,11.4715810546875,-0.021991148591041565,-0.045204028487205505,-0.10262536257505417
1772739599197278200,11.4822783203125,-0.02076941914856434,-0.042760565876960754,-0.10384709388017654
1772739599206675700,11.49167578125,-0.01710422709584236,-0.0403171069920063,-0.10262536257505417
1772739599218699500,11.503699462890625,-0.015882495790719986,-0.036651913076639175,-0.10873401165008545
1772739599236885800,11.5218857421875,-0.006108652334660292,-0.01466076634824276,-0.11850785464048386
1772739599246927000,11.531927001953125,-0.0012217304902151227,-0.006108652334660292,-0.11484266817569733
1772739599257111000,11.542111083984375,0.0024434609804302454,-0.0012217304902151227,-0.11362093687057495
1772739599266999600,11.55199951171875,0.00366519158706069,0.0024434609804302454,-0.10018189996480942
1772739599277054500,11.562054443359376,0.00366519158706069,0.00366519158706069,-0.08185594528913498
1772739599287093800,11.57209375,0.0012217304902151227,0,-0.05864306539297104
1772739599297160000,11.582159912109375,-0.0012217304902151227,-0.0024434609804302454,-0.0403171069920063
1772739599307168800,11.592168701171875,-0.006108652334660292,-0.009773843921720982,-0.03298672288656235
1772739599317534700,11.60253466796875,-0.009773843921720982,-0.01710422709584236,-0.0403171069920063
1772739599337351200,11.62235107421875,-0.010995574295520782,-0.02687807008624077,-0.06719517707824707
1772739599347372800,11.632372802734375,-0.00733038317412138,-0.01710422709584236,-0.06963863968849182
1772739599358019600,11.64301953125,0,-0.010995574295520782,-0.06841690838336945
1772739599367422700,11.652422607421874,0.0024434609804302454,-0.00733038317412138,-0.0757472887635231
1772739599379981600,11.664981689453125,0.006108652334660292,-0.004886921960860491,-0.08307767659425735
1772739599387513900,11.672513916015625,0.009773843921720982,0.0012217304902151227,-0.08429940044879913
1772739599397540000,11.6825400390625,0.01466076634824276,0.009773843921720982,-0.09162978827953339
1772739599407537400,11.692537353515625,0.013439035043120384,0.009773843921720982,-0.10751228034496307
1772739599417908200,11.702908203125,0.01466076634824276,0.010995574295520782,-0.1160643994808197
1772739599437609200,11.722609130859375,0.01710422709584236,0.02687807008624077,-0.1014036312699318
1772739599447609600,11.732609619140625,0.01710422709584236,0.02932153269648552,-0.10384709388017654
1772739599457668000,11.742668212890624,0.01710422709584236,0.0354301854968071,-0.09407325088977814
1772739599467686400,11.752686279296874,0.015882495790719986,0.03787364438176155,-0.0806342139840126
1772739599477744400,11.762744384765625,0.01466076634824276,0.03787364438176155,-0.05009094998240471
1772739599487769300,11.772769287109375,0.01710422709584236,0.036651913076639175,-0.01710422709584236
1772739599497850400,11.782850341796875,0.018325956538319588,0.0403171069920063,0.01710422709584236
1772739599507860200,11.792860107421875,0.019547687843441963,0.042760565876960754,0.0403171069920063
1772739599518836700,11.803836669921875,0.018325956538319588,0.039095375686883926,0.04398229718208313
1772739599548060000,11.833059814453126,0.010995574295520782,0.025656340643763542,0.042760565876960754
1772739599558112300,11.8431123046875,0.00733038317412138,0.01466076634824276,0.036651913076639175
1772739599568136700,11.85313671875,0.00366519158706069,0.010995574295520782,0.03298672288656235
1772739599578212000,11.863212158203124,0.0024434609804302454,0.00733038317412138,0.018325956538319588
1772739599588215300,11.87321533203125,0.0012217304902151227,0.00855211354792118,0.012217304669320583
1772739599598262500,11.883262451171875,-0.0012217304902151227,0.0024434609804302454,0.00366519158706069
1772739599608297000,11.893296875,-0.00366519158706069,-0.0012217304902151227,0.0012217304902151227
1772739599618676700,11.9036767578125,-0.00366519158706069,0.0012217304902151227,0.006108652334660292
1772739599628364000,11.913364013671876,-0.0024434609804302454,0,0.004886921960860491
1772739599658546400,11.94354638671875,0.004886921960860491,0.013439035043120384,-0.009773843921720982
1772739599668555300,11.95355517578125,0.00733038317412138,0.02076941914856434,-0.013439035043120384
1772739599679215600,11.964215576171876,0.00733038317412138,0.025656340643763542,-0.009773843921720982
1772739599688638500,11.973638427734375,0.00855211354792118,0.028099801391363144,-0.010995574295520782
1772739599701189600,11.986189697265624,0.00855211354792118,0.030543262138962746,0
1772739599708749300,11.993749267578124,0.00855211354792118,0.03176499158143997,0.0024434609804302454
1772739599719114800,12.00411474609375,0.006108652334660292,0.03176499158143997,0.0012217304902151227
1772739599728838700,12.013838623046874,0.0024434609804302454,0.025656340643763542,-0.00366519158706069
1772739599748911600,12.03391162109375,-0.00733038317412138,0.010995574295520782,-0.018325956538319588
1772739599758964700,12.04396484375,-0.01466076634824276,0.004886921960860491,-0.02076941914856434
1772739599769000200,12.054000244140624,-0.015882495790719986,-0.0012217304902151227,-0.02076941914856434
1772739599779067600,12.064067626953126,-0.018325956538319588,-0.004886921960860491,-0.019547687843441963
1772739599789074400,12.074074462890625,-0.021991148591041565,-0.009773843921720982,-0.018325956538319588
1772739599799122400,12.084122314453126,-0.02076941914856434,-0.012217304669320583,-0.013439035043120384
1772739599809139700,12.0941396484375,-0.02076941914856434,-0.013439035043120384,-0.015882495790719986
1772739599819522300,12.104522216796875,-0.018325956538319588,-0.010995574295520782,-0.02076941914856434
1772739599829216300,12.11421630859375,-0.01710422709584236,-0.012217304669320583,-0.02687807008624077
1772739599869399300,12.1543994140625,-0.006108652334660292,0.0024434609804302454,-0.03420845419168472
1772739599879455000,12.164455078125,-0.00366519158706069,0.00733038317412138,-0.019547687843441963
1772739599889474800,12.174474853515624,-0.00733038317412138,0.015882495790719986,-0.006108652334660292
1772739599899542300,12.184542236328125,-0.13439035415649414,0.07208210229873657,-0.02076941914856434
1772739599909543700,12.194543701171876,-0.05009094998240471,0.030543262138962746,-0.006108652334660292
1772739599919900000,12.20489990234375,-0.009773843921720982,0.006108652334660292,-0.009773843921720982
1772739599929609500,12.214609375,-0.0024434609804302454,0.00733038317412138,-0.02932153269648552
1772739599959715600,12.244715576171876,0.010995574295520782,0.01710422709584236,-0.0403171069920063
1772739599969758500,12.254758544921875,0.00855211354792118,0.018325956538319588,-0.03298672288656235
1772739599979825000,12.264824951171875,-0.00366519158706069,0.013439035043120384,-0.02687807008624077
1772739599989825000,12.274824951171874,-0.021991148591041565,0.010995574295520782,-0.028099801391363144
1772739600000478200,12.285478271484376,-0.02076941914856434,-0.0012217304902151227,-0.03420845419168472
1772739600009898500,12.2948984375,-0.015882495790719986,-0.02076941914856434,-0.05009094998240471
1772739600022792700,12.307792724609374,-0.01466076634824276,-0.042760565876960754,-0.1014036312699318
1772739600030255600,12.315255615234374,-0.019547687843441963,-0.05497787147760391,-0.11728613078594208
1772739600040059100,12.32505908203125,-0.019547687843441963,-0.059864792972803116,-0.16493362188339233
1772739600060196900,12.34519677734375,-0.013439035043120384,-0.04642575979232788,-0.29565876722335815
1772739600070185200,12.355185302734375,-0.006108652334660292,-0.03298672288656235,-0.3738495409488678
1772739600080250400,12.36525048828125,-0.004886921960860491,-0.030543262138962746,-0.4105014503002167
1772739600090267600,12.375267578125,-0.0012217304902151227,-0.02321287989616394,-0.4190535545349121
1772739600100363800,12.38536376953125,0.009773843921720982,-0.006108652334660292,-0.4153883755207062
1772739600110360800,12.39536083984375,0.030543262138962746,0.024434609338641167,-0.3188716471195221
1772739600120742400,12.405742431640626,0.05253441259264946,0.05009094998240471,-0.2076941877603531
1772739600130451500,12.415451416015625,0.06719517707824707,0.06230825558304787,-0.1062905490398407
1772739600140555500,12.425555419921874,0.09407325088977814,0.08552113175392151,-0.08918632566928864
1772739600150550300,12.43555029296875,0.14294247329235077,0.13072516024112701,0.00855211354792118
1772739600182335200,12.467335205078125,0.2223549485206604,0.15271630883216858,0.1722639948129654
1772739600190750200,12.475750244140626,0.3078760802745819,0.19425514340400696,0.2724458873271942
1772739600200817700,12.485817626953125,0.4434881806373596,0.11484266817569733,0.11728613078594208
1772739600210863600,12.495863525390625,0.6670648455619812,0.11239920556545258,-0.27977627515792847
1772739600221251600,12.50625146484375,1.1850786209106445,0.38240164518356323,-0.7452555894851685
1772739600230959000,12.515958984375,1.712866187095642,0.7550294399261475,-1.1166616678237915
1772739600241027600,12.526027587890624,2.076941728591919,0.8014551997184753,-1.1020009517669678
1772739600251078100,12.536078125,2.3518311977386475,1.0335839986801147,-0.4153883755207062
1772739600281209000,12.566208984375,3.4012975692749023,0.5681046843528748,-0.5021312236785889
1772739600291207400,12.57620751953125,3.8313467502593994,0.4691445231437683,-0.7220427393913269
1772739600301267500,12.586267333984376,4.144109725952148,0.4386012554168701,-0.7171558141708374
1772739600311246600,12.59624658203125,4.345695495605469,0.3677408695220947,-0.6291912198066711
1772739600322188300,12.607188232421874,4.525289535522461,0.2272418737411499,-0.5839871764183044
1772739600331287800,12.616287841796876,4.745201110839844,0.04398229718208313,-0.6866125464439392
1772739600343804700,12.6288046875,5.086063861846924,-0.2028072625398636,-1.1582005023956299
1772739600351335000,12.6363349609375,5.166698455810547,-0.2822197377681732,-1.3255776166915894
1772739600361360000,12.64635986328125,5.279097557067871,-0.4593706727027893,-1.6908750534057617
1772739600391405000,12.676405029296875,5.312084197998047,-1.1508700847625732,-2.778215169906616
1772739600401439700,12.686439697265625,5.216789245605469,-1.5638149976730347,-3.226590156555176
1772739600411461400,12.69646142578125,5.092172622680664,-1.8191566467285156,-3.45871901512146
1772739600421820000,12.70681982421875,4.928460597991943,-2.068389654159546,-3.654195785522461
1772739600431496000,12.716495849609375,4.7415361404418945,-2.311514139175415,-3.7873644828796387
1772739600441521400,12.726521484375,4.532619953155518,-2.5448646545410156,-3.8252382278442383
1772739600451548700,12.736548583984375,4.3004913330078125,-2.7562239170074463,-3.7788124084472656
1772739600461589800,12.74658984375,4.0378193855285645,-2.941926956176758,-3.6920695304870605
1772739600471566300,12.75656640625,3.7446038722991943,-3.081204414367676,-3.554013967514038
1772739600491610000,12.776610107421876,3.0726521015167236,-3.126408338546753,-3.1141910552978516
1772739600503298600,12.788298583984375,2.5143213272094727,-3.0079004764556885,-2.5815165042877197
1772739600511648300,12.796648193359376,2.3347270488739014,-2.9578094482421875,-2.4300220012664795
1772739600521986600,12.806986572265625,1.82404363155365,-2.805093288421631,-2.2773056030273438
1772739600532740000,12.817739990234376,1.470963478088379,-2.718350410461426,-2.2015583515167236
1772739600542807600,12.8278076171875,1.0848966836929321,-2.6145031452178955,-2.0390682220458984
1772739600552777700,12.83777783203125,0.7012733221054077,-2.4544565677642822,-1.8154915571212769
1772739600562795500,12.84779541015625,0.3494149148464203,-2.2626447677612305,-1.626123309135437
1772739600572810500,12.857810546875,0.010995574295520782,-2.096489429473877,-1.606575608253479
1772739600592828200,12.877828125,-0.8356636762619019,-1.940108060836792,-1.901012659072876
1772739600602844000,12.887843994140624,-1.1630873680114746,-1.8484781980514526,-1.968207836151123
1772739600612847000,12.89784716796875,-1.4233160018920898,-1.7360789775848389,-1.957212209701538
1772739600623185200,12.90818505859375,-1.6578882932662964,-1.480737328529358,-1.8277088403701782
1772739600632852000,12.91785205078125,-1.7629570960998535,-1.292590856552124,-1.7861700057983398
1772739600643464400,12.92846435546875,-1.9083430767059326,-1.1044443845748901,-1.7690657377243042
1772739600652866000,12.937865966796876,-2.020742177963257,-0.9480628371238708,-1.7373007535934448
1772739600665383000,12.9503828125,-2.098932981491089,-0.836885392665863,-1.6920967102050781
1772739600672890600,12.957890625,-2.1649065017700195,-0.7379252314567566,-1.5357152223587036
1772739600682901200,12.9679013671875,-2.2174408435821533,-0.626747727394104,-1.1557570695877075
1772739600703019800,12.988019775390624,-2.0146336555480957,-0.4202753007411957,-0.2223549485206604
1772739600712991000,12.997990966796875,-1.814269781112671,-0.38728857040405273,0.2125810980796814
1772739600723326500,13.008326416015626,-1.665218710899353,-0.3836233615875244,0.5143485069274902
1772739600733037800,13.018037841796875,-1.5650367736816406,-0.3530801236629486,0.6145304441452026
1772739600743081200,13.028081298828125,-1.4685200452804565,-0.2675589919090271,0.5949827432632446
1772739600753055500,13.038055419921875,-1.3781119585037231,-0.13561208546161652,0.39706242084503174
1772739600763074800,13.04807470703125,-1.303586483001709,0.004886921960860491,0.11239920556545258
1772739600773070300,13.0580703125,-1.1997393369674683,0.15515977144241333,-0.1368338167667389
1772739600783114800,13.06811474609375,-1.1313223838806152,0.21868975460529327,-0.20036379992961884
1772739600793102800,13.078102783203125,-1.0323622226715088,0.2541199326515198,-0.18325957655906677
1772739600813132000,13.098132080078125,-0.856433093547821,0.32498031854629517,-0.15882496535778046
1772739600825070800,13.11007080078125,-0.8332201838493347,0.3701843321323395,-0.20525072515010834
1772739600833196500,13.118196533203125,-0.8686503767967224,0.41661009192466736,-0.2431243658065796
1772739600843225000,13.12822509765625,-0.9065240025520325,0.47280970215797424,-0.23579397797584534
1772739600853254000,13.13825390625,-0.9028588533401489,0.5180137157440186,-0.20891591906547546
1772739600863294500,13.14829443359375,-0.8478809595108032,0.5302310585975647,-0.2590068578720093
1772739600873269000,13.15826904296875,-0.6902777552604675,0.5106833577156067,-0.40072759985923767
1772739600883302100,13.16830224609375,-0.4740314185619354,0.46670106053352356,-0.5375614166259766
1772739600893317000,13.178317138671876,-0.24556782841682434,0.4105014503002167,-0.5522221922874451
1772739600913340700,13.198340576171875,0.16982053220272064,0.32620203495025635,-0.01710422709584236
1772739600923675000,13.2086748046875,0.18570303916931152,0.3237585723400116,0.23579397797584534
1772739600933382700,13.218382568359376,0.20525072515010834,0.32498031854629517,0.4447098970413208
1772739600943426000,13.228426025390625,0.2480112910270691,0.32009339332580566,0.5681046843528748
1772739600953397500,13.2383974609375,0.304210901260376,0.2883284091949463,0.6902777552604675
1772739600964027000,13.24902685546875,0.33719760179519653,0.1966986060142517,0.9004153609275818
1772739600973415200,13.258415283203124,0.3188716471195221,0.07452555745840073,1.1044443845748901
1772739600985925400,13.27092529296875,0.24556782841682434,-0.10262536257505417,1.2803735733032227
1772739600993447400,13.278447509765625,0.22357667982578278,-0.13805554807186127,1.310916781425476
1772739601003468300,13.28846826171875,0.18570303916931152,-0.17348572611808777,1.4001030921936035
1772739601023830800,13.308830810546874,0.07208210229873657,-0.2687807083129883,1.6016886234283447
1772739601033513700,13.318513671875,0.004886921960860491,-0.2822197377681732,1.5454890727996826
1772739601043544600,13.328544677734374,-0.042760565876960754,-0.27488934993743896,1.3671164512634277
1772739601053556500,13.338556396484375,-0.051312681287527084,-0.26145032048225403,1.1215485334396362
1772739601063604700,13.348604736328125,-0.04642575979232788,-0.24068090319633484,0.8845328688621521
1772739601073600000,13.35860009765625,-0.030543262138962746,-0.21624629199504852,0.740368664264679
1772739601083630000,13.368630126953125,-0.012217304669320583,-0.19547687470912933,0.6890559792518616
1772739601093631500,13.378631591796875,-0.0012217304902151227,-0.1661553531885147,0.6743952035903931
1772739601103680000,13.388679931640626,0.009773843921720982,-0.1319468915462494,0.6939429044723511
1772739601113654000,13.398654052734376,0.02932153269648552,-0.1062905490398407,0.7000515460968018
1772739601133702400,13.418702392578124,0.09162978827953339,-0.0708603709936142,0.6096435189247131
1772739601145382400,13.43038232421875,0.12339477986097336,-0.07941248267889023,0.4080579876899719
1772739601153734100,13.438734130859375,0.1319468915462494,-0.08674286305904388,0.32498031854629517
1772739601163736800,13.44873681640625,0.13561208546161652,-0.09285151958465576,0.10506882518529892
1772739601173732900,13.45873291015625,0.11239920556545258,-0.1258382350206375,0.013439035043120384
1772739601183768000,13.46876806640625,0.08674286305904388,-0.17837265133857727,-0.028099801391363144
1772739601193738000,13.478738037109375,0.07819075137376785,-0.22846360504627228,-0.012217304669320583
1772739601203756300,13.48875634765625,0.08552113175392151,-0.2687807083129883,-0.004886921960860491
1772739601213755100,13.498755126953125,0.09651670604944229,-0.3029891550540924,-0.00733038317412138
1772739601224115700,13.50911572265625,0.09896016865968704,-0.3323107063770294,0.019547687843441963
1772739601253830400,13.538830322265625,0.07452555745840073,-0.39584067463874817,0.45814892649650574
1772739601263870700,13.54887060546875,0.06230825558304787,-0.3445279896259308,0.740368664264679
1772739601273856300,13.558856201171874,0.0708603709936142,-0.2919935882091522,0.950506329536438
1772739601284502300,13.569502197265624,0.1062905490398407,-0.25534167885780334,0.9871582388877869
1772739601293907500,13.578907470703125,0.1160643994808197,-0.26145032048225403,0.8796459436416626
1772739601306429400,13.591429443359376,0.1160643994808197,-0.2565633952617645,0.6108652353286743
1772739601313968600,13.59896875,0.12339477986097336,-0.20402899384498596,0.3078760802745819
1772739601324323600,13.609323486328124,0.1270599663257599,-0.15393804013729095,0.0708603709936142
1772739601354083600,13.63908349609375,0.13316862285137177,-0.12217304855585098,-0.14538592100143433
1772739601364123000,13.649122802734375,0.1319468915462494,-0.11484266817569733,-0.06963863968849182
1772739601374144500,13.65914453125,0.1319468915462494,-0.11972958594560623,0.025656340643763542
1772739601384207600,13.66920751953125,0.14416420459747314,-0.12461651116609573,0.10751228034496307
1772739601394202600,13.67920263671875,0.1563815027475357,-0.10995574295520782,0.14294247329235077
1772739601404238000,13.689238037109375,0.16371189057826996,-0.07941248267889023,0.1563815027475357
1772739601414256600,13.699256591796875,0.17592918872833252,-0.06841690838336945,0.13927727937698364
1772739601424623900,13.709623779296875,0.2064724564552307,-0.07819075137376785,0.0757472887635231
1772739601434310100,13.71931005859375,0.21380282938480377,-0.05742133408784866,0.0708603709936142
1772739601444957700,13.729957763671875,0.19914206862449646,-0.021991148591041565,0.10262536257505417
1772739601466045400,13.75104541015625,0.1661553531885147,-0.019547687843441963,0.14049901068210602
1772739601474461200,13.759461181640624,0.16737708449363708,-0.02076941914856434,0.14782938361167908
1772739601484508000,13.7695078125,0.15271630883216858,-0.00855211354792118,0.13927727937698364
1772739601494530600,13.779530517578126,0.10995574295520782,-0.00733038317412138,0.18814650177955627
1772739601504589000,13.789589111328125,0.09651670604944229,-0.024434609338641167,0.34574973583221436
1772739601514592000,13.799592041015625,0.14049901068210602,-0.0806342139840126,0.5363397002220154
1772739601524947200,13.809947265625,0.2064724564552307,-0.16982053220272064,0.6230825781822205
1772739601544771300,13.829771240234376,0.18325957655906677,-0.10995574295520782,0.7379252314567566
1772739601564831700,13.849831787109375,0.06352998316287994,0.00855211354792118,0.29565876722335815
1772739601584925400,13.869925537109374,-0.006108652334660292,0.3274237811565399,-0.6511823534965515
1772739601605616600,13.89061669921875,-0.2321287989616394,0.4740314185619354,-1.1288789510726929
1772739601627936000,13.91293603515625,-0.5070181488990784,0.5192354321479797,-0.8894197940826416
1772739601635501000,13.9205009765625,-0.5803219676017761,0.5192354321479797,-0.8051204085350037
1772739601645204200,13.930204345703125,-0.7586946487426758,0.5290092825889587,-0.6316346526145935
1772739601665346800,13.950346923828125,-1.017701506614685,0.6438519954681396,-0.19547687470912933
1772739601675355400,13.96035546875,-1.0824532508850098,0.6536257863044739,0.025656340643763542
1772739601685408800,13.97040869140625,-1.1496484279632568,0.6218608021736145,0.1563815027475357
1772739601695442200,13.980442138671876,-1.1789699792861938,0.5974262356758118,0.07330382615327835
1772739601705517000,13.99051708984375,-1.1496484279632568,0.6340781450271606,-0.22113321721553802
1772739601715520300,14.000520263671875,-1.0910053253173828,0.7134906053543091,-0.5644394755363464
1772739601725881600,14.010881591796876,-1.0409144163131714,0.779464066028595,-0.769690215587616
1772739601735601000,14.020600830078125,-0.998153805732727,0.7953465580940247,-0.8087855577468872
1772739601745669600,14.030669677734375,-0.9456194043159485,0.7415903806686401,-0.7367035150527954
1772739601755686000,14.040685791015624,-0.8747590184211731,0.6426302194595337,-0.656069278717041
1772739601775767300,14.060767333984375,-0.7379252314567566,0.5448917746543884,-0.6524040699005127
1772739601787482000,14.072482177734376,-0.6939429044723511,0.5253441333770752,-0.5998696684837341
1772739601796087600,14.081087646484375,-0.6743952035903931,0.5155702829360962,-0.6010913848876953
1772739601805887700,14.0908876953125,-0.6426302194595337,0.5119050741195679,-0.6108652353286743
1772739601815917000,14.1009169921875,-0.5962044596672058,0.5167919993400574,-0.6206390857696533
1772739601826309600,14.1113095703125,-0.5485569834709167,0.5143485069274902,-0.6035348773002625
1772739601835983600,14.120983642578125,-0.5070181488990784,0.4911356568336487,-0.5375614166259766
1772739601846055200,14.13105517578125,-0.4544837474822998,0.45692721009254456,-0.46792277693748474
1772739601856077000,14.1410771484375,-0.4141666293144226,0.4239404797554016,-0.43615779280662537
1772739601866140400,14.151140380859376,-0.375071257352829,0.4031710624694824,-0.4251621961593628
1772739601886307300,14.171307373046876,-0.27122417092323303,0.42760565876960754,-0.3433062732219696
1772739601896202800,14.18120263671875,-0.2773328125476837,0.4202753007411957,-0.2687807083129883
1772739601906235000,14.19123486328125,-0.28099802136421204,0.4178318381309509,-0.20891591906547546
1772739601916236300,14.201236328125,-0.3078760802745819,0.41172316670417786,-0.26022860407829285
1772739601927206700,14.21220654296875,-0.32620203495025635,0.4153883755207062,-0.38240164518356323
1772739601936284200,14.2212841796875,-0.32131510972976685,0.4288274049758911,-0.5314527750015259
1772739601948805600,14.2338056640625,-0.304210901260376,0.43737950921058655,-0.6352998614311218
1772739601956349400,14.241349365234376,-0.2871066629886627,0.44226643443107605,-0.6536257863044739
1772739601986422300,14.27142236328125,-0.3029891550540924,0.4703662395477295,-0.33597588539123535
1772739601996429000,14.281428955078125,-0.2932153046131134,0.46670106053352356,-0.2174680233001709
1772739602006483700,14.291483642578125,-0.26633724570274353,0.4544837474822998,-0.15515977144241333
1772739602016482800,14.30148291015625,-0.2431243658065796,0.44593164324760437,-0.14782938361167908
1772739602026829300,14.311829345703124,-0.24923302233219147,0.4447098970413208,-0.17470745742321014
1772739602036533200,14.321533203125,-0.24068090319633484,0.45692721009254456,-0.13927727937698364
1772739602046581000,14.3315810546875,-0.22479841113090515,0.44837507605552673,-0.01466076634824276
1772739602056601600,14.3416015625,-0.23945917189121246,0.43615779280662537,0.09651670604944229
1772739602066636800,14.35163671875,-0.27000242471694946,0.42638394236564636,0.21013765037059784
1772739602087317500,14.3723173828125,-0.2932153046131134,0.3799581825733185,0.35552358627319336
1772739602096702700,14.38170263671875,-0.27611109614372253,0.36529740691185,0.37262779474258423
1772739602108333800,14.393333740234375,-0.25534167885780334,0.3481931984424591,0.31154128909111023
1772739602116736500,14.401736572265625,-0.21991148591041565,0.34697145223617554,0.24068090319633484
1772739602127103700,14.412103759765625,-0.19303341209888458,0.3433062732219696,0.16859880089759827
1772739602136784100,14.4217841796875,-0.17837265133857727,0.32498031854629517,0.12950342893600464
1772739602146805200,14.43180517578125,-0.1661553531885147,0.28588494658470154,0.11239920556545258
1772739602156801000,14.441801025390625,-0.16982053220272064,0.24678955972194672,0.0708603709936142
1772739602166857700,14.451857666015625,-0.21502456068992615,0.23457226157188416,-0.00366519158706069
1772739602186876700,14.471876708984375,-0.2773328125476837,0.24068090319633484,-0.21624629199504852
1772739602196907000,14.481906982421876,-0.2590068578720093,0.23090706765651703,-0.2834414839744568
1772739602207002600,14.492002685546876,-0.2125810980796814,0.21624629199504852,-0.34574973583221436
1772739602217022500,14.5020224609375,-0.17837265133857727,0.20891591906547546,-0.39217549562454224
1772739602227405000,14.512405029296875,-0.17348572611808777,0.21135938167572021,-0.4043927788734436
1772739602237148400,14.5221484375,-0.1771509200334549,0.20036379992961884,-0.40683624148368835
1772739602247833600,14.53283349609375,-0.19058994948863983,0.20525072515010834,-0.39217549562454224
1772739602257248800,14.542248779296875,-0.22602014243602753,0.2174680233001709,-0.3591887652873993
1772739602269800200,14.55480029296875,-0.28099802136421204,0.25045475363731384,-0.3176499307155609
1772739602287448800,14.57244873046875,-0.3579670190811157,0.2724458873271942,-0.26511552929878235
1772739602297472500,14.582472412109375,-0.34208452701568604,0.27122417092323303,-0.25534167885780334
1772739602307537400,14.592537353515626,-0.2932153046131134,0.26511552929878235,-0.26633724570274353
1772739602317579500,14.60257958984375,-0.2590068578720093,0.22602014243602753,-0.28588494658470154
1772739602327976200,14.61297607421875,-0.2577851414680481,0.20891591906547546,-0.3494149148464203
1772739602337694500,14.622694580078125,-0.3078760802745819,0.24190263450145721,-0.4190535545349121
1772739602347766800,14.632766845703125,-0.4056145250797272,0.3066543638706207,-0.4813618063926697
1772739602357811500,14.6428115234375,-0.46181413531303406,0.3543018400669098,-0.5705481171607971
1772739602367891000,14.652890869140625,-0.44593164324760437,0.32986724376678467,-0.7000515460968018
1772739602397927700,14.682927734375,-0.2834414839744568,0.2638937830924988,-0.7428121566772461
1772739602408583400,14.69358349609375,-0.0806342139840126,0.15027284622192383,-0.3433062732219696
1772739602417967600,14.702967529296876,-0.16493362188339233,0.1466076523065567,-0.26145032048225403
1772739602429943800,14.71494384765625,-0.18081611394882202,0.15882496535778046,-0.37140607833862305
1772739602438023200,14.723023193359374,-0.1417207419872284,0.17104226350784302,-0.30543261766433716
1772739602448069400,14.7330693359375,-0.1661553531885147,0.22479841113090515,-0.42638394236564636
1772739602458080800,14.743080810546875,-0.1368338167667389,0.21135938167572021,-0.4948008358478546
1772739602468104700,14.753104736328124,-0.12461651116609573,0.16737708449363708,-0.49357911944389343
1772739602478123000,14.763123046875,-0.0757472887635231,0.1111774742603302,-0.5803219676017761
1772739602498153000,14.783153076171875,-0.006108652334660292,0.0403171069920063,-0.7635815739631653
1772739602508184300,14.793184326171875,0.02076941914856434,0.010995574295520782,-0.7195992469787598
1772739602518187000,14.80318701171875,0.06475171446800232,-0.01466076634824276,-0.7159340381622314
1772739602528549400,14.81354931640625,0.10751228034496307,0,-0.7684684991836548
1772739602548293400,14.83329345703125,0.22113321721553802,-0.1062905490398407,-0.7024950385093689
1772739602558282800,14.84328271484375,0.2015855312347412,0.02687807008624077,-1.056796908378601
1772739602568937200,14.853937255859375,0.21868975460529327,-0.03420845419168472,-1.0445796251296997
1772739602578309000,14.86330908203125,0.17104226350784302,0.01466076634824276,-1.0115928649902344
1772739602590814000,14.87581396484375,0.06475171446800232,0.11972958594560623,-0.8857545852661133
1772739602608395000,14.89339501953125,0.015882495790719986,0.09651670604944229,-0.3836233615875244
1772739602628717300,14.91371728515625,-0.012217304669320583,0.20891591906547546,-0.6536257863044739
1772739602638406400,14.923406494140625,-0.006108652334660292,0.2076941877603531,-0.9272934198379517
1772739602648460800,14.933460693359375,-0.045204028487205505,0.20891591906547546,-0.9541715383529663
1772739602658463000,14.943462890625,-0.06108652427792549,0.17837265133857727,-0.6572909951210022
1772739602668499500,14.95349951171875,-0.09407325088977814,0.3078760802745819,-0.5693264007568359
1772739602678504000,14.96350390625,-0.1368338167667389,0.4043927788734436,-0.4593706727027893
1772739602688556000,14.97355615234375,-0.15882496535778046,0.3445279896259308,-0.40683624148368835
1772739602698544600,14.983544677734375,-0.09529497474431992,0.18448130786418915,-0.1563815027475357
1772739602718598000,15.003597900390625,-0.09407325088977814,0.21013765037059784,-0.37140607833862305
1772739602729571300,15.0145712890625,-0.08796459436416626,0.20891591906547546,-0.38606682419776917
1772739602738663000,15.023662841796876,-0.07208210229873657,0.2272418737411499,-0.3543018400669098
1772739602750290200,15.035290283203125,-0.06230825558304787,0.15271630883216858,-0.10506882518529892
