time,seconds_elapsed,z,y,x
1772739588334835500,0.61983544921875,9.765948295593262,1.0079588890075684,0.019153613597154617
1772739588344912000,0.629911865234375,9.75637149810791,1.0534487962722778,-0.002394201699644327
1772739588355611000,0.64061083984375,9.744400978088379,1.137245774269104,-0.08140286058187485
1772739588365610200,0.6506103515625,9.840168952941895,1.2330138683319092,-0.07900865375995636
1772739588375986400,0.660986328125,9.797073364257812,1.2497732639312744,-0.10295066982507706
1772739588385669600,0.670669677734375,9.765948295593262,1.1180921792984009,-0.05267243832349777
1772739588395748000,0.680748046875,9.782708168029785,1.1228805780410767,-0.07661445438861847
1772739588405776100,0.690776123046875,9.742006301879883,1.1468225717544556,-0.05506663769483566
1772739588415843800,0.70084375,9.782708168029785,1.1540051698684692,-0.1412578970193863
1772739588425872000,0.710871826171875,9.883264541625977,1.048660397529602,-0.19393034279346466
1772739588436565000,0.72156494140625,9.876082420349121,1.158793568611145,-0.026336219161748886
1772739588445970700,0.730970703125,9.888052940368652,1.1109095811843872,-0.009576806798577309
1772739588458516700,0.743516845703125,9.971850395202637,1.1779472827911377,-0.08140286058187485
1772739588466085600,0.751085693359375,9.909601211547852,1.1013327836990356,-0.10055647045373917
1772739588476484000,0.761484130859375,9.832986831665039,1.1635819673538208,-0.12928688526153564
1772739588487223000,0.77222314453125,9.63187313079834,1.192312479019165,-0.031124621629714966
1772739588497275100,0.782275146484375,9.569623947143555,1.213860273361206,-0.05746084079146385
1772739588507294000,0.7922939453125,9.581595420837402,1.2689268589019775,0.004788403399288654
1772739588517385200,0.80238525390625,9.639056205749512,1.3455413579940796,0.035913024097681046
1772739588527376100,0.812376220703125,9.768342971801758,1.2856862545013428,0.07182604819536209
1772739588537434000,0.82243408203125,9.78989028930664,1.1635819673538208,0.05985504388809204
1772739588547440600,0.832440673828125,9.758766174316406,1.0558429956436157,0.08379705995321274
1772739588557513000,0.842512939453125,9.797073364257812,0.993593692779541,0.031124621629714966
1772739588577858600,0.862858642578125,9.840168952941895,1.0654197931289673,0.07900865375995636
1772739588587564300,0.872564208984375,9.775525093078613,1.170764684677124,0.13168109953403473
1772739588598246700,0.88324658203125,9.780313491821289,1.3455413579940796,0.11252748221158981
1772739588607624200,0.892624267578125,9.782708168029785,1.3551181554794312,0.07661445438861847
1772739588619277800,0.90427783203125,9.684545516967773,1.3982137441635132,0.10055647045373917
1772739588627697700,0.91269775390625,9.674968719482422,1.3623007535934448,0.0694318488240242
1772739588637758000,0.922758056640625,9.651026725769043,1.3718775510787964,0.033518824726343155
1772739588647745800,0.932745849609375,9.59835433959961,1.2856862545013428,0.17477671802043915
1772739588657779500,0.942779541015625,9.57441234588623,1.1875240802764893,0.17238251864910126
1772739588678176500,0.963176513671875,9.68694019317627,1.290474772453308,0.0933738648891449
1772739588687864600,0.972864501953125,9.718064308166504,1.3096283674240112,0.15562310814857483
1772739588697904600,0.982904541015625,9.72285270690918,1.3527239561080933,0.15083470940589905
1772739588707913700,0.992913818359375,9.651026725769043,1.37906014919281,0.1388636976480484
1772739588717972200,1.00297216796875,9.720458984375,1.4532804489135742,0.014365210197865963
1772739588727965700,1.012965576171875,9.674968719482422,1.4724340438842773,0.014365210197865963
1772739588738005200,1.023005126953125,9.66299819946289,1.4484920501708984,0.031124621629714966
1772739588748010800,1.0330107421875,9.713275909423828,1.4700398445129395,0.019153613597154617
1772739588758678500,1.043678466796875,9.737217903137207,1.381454348564148,0.07661445438861847
1772739588768072400,1.053072509765625,9.720458984375,1.37906014919281,-0.040701430290937424
1772739588788416800,1.073416748046875,9.6989107131958,1.2976573705673218,-0.047884032130241394
1772739588798225200,1.08322509765625,9.72285270690918,1.3527239561080933,-0.05746084079146385
1772739588808244500,1.093244384765625,9.708487510681152,1.3407529592514038,0.07661445438861847
1772739588818282000,1.103281982421875,9.770736694335938,1.316810965538025,0.1149216815829277
1772739588828287500,1.11328759765625,9.818621635437012,1.338358759880066,0.1843535304069519
1772739588838338800,1.1233388671875,9.679757118225098,1.2880805730819702,0.22026655077934265
1772739588848329500,1.13332958984375,9.586383819580078,1.3623007535934448,0.1173158809542656
1772739588858358300,1.143358154296875,9.660603523254395,1.3024457693099976,0.14844051003456116
1772739588868374300,1.153374267578125,9.710882186889648,1.3886369466781616,0.15562310814857483
1772739588878735400,1.1637353515625,9.732429504394531,1.4317326545715332,0.14844051003456116
1772739588898449400,1.183449462890625,9.677363395690918,1.3263877630233765,0.14365209639072418
1772739588908451300,1.193451416015625,9.603142738342285,1.2689268589019775,0.13168109953403473
1772739588919112200,1.2041123046875,9.526528358459473,1.1468225717544556,0.09816227108240128
1772739588928495400,1.213495361328125,9.605537414550781,1.1899182796478271,0.1843535304069519
1772739588940161300,1.225161376953125,9.591172218322754,1.2282254695892334,0.06464344263076782
1772739588948560600,1.233560546875,9.619902610778809,1.1827356815338135,0.1388636976480484
1772739588958613500,1.243613525390625,9.636661529541016,1.1994950771331787,0.07182604819536209
1772739588968601300,1.253601318359375,9.706093788146973,1.256955862045288,0.021547814831137657
1772739588978950000,1.263949951171875,9.674968719482422,1.338358759880066,-0.023942016065120697
1772739588998698000,1.283697998046875,9.57201862335205,1.414973258972168,0.06703764945268631
1772739589008691200,1.293691162109375,9.655815124511719,1.3311761617660522,0.19632454216480255
1772739589018734000,1.303734130859375,9.5624418258667,1.2689268589019775,0.19632454216480255
1772739589028733200,1.313733154296875,9.53849983215332,1.2880805730819702,0.09816227108240128
1772739589038781000,1.323781005859375,9.653421401977539,1.194706678390503,-0.004788403399288654
1772739589048768000,1.33376806640625,9.691728591918945,1.5083470344543457,-0.035913024097681046
1772739589058805200,1.34380517578125,9.725247383117676,1.5610195398330688,-0.0454898327589035
1772739589068801000,1.353801025390625,9.660603523254395,1.5729905366897583,-0.0454898327589035
1772739589079771000,1.36477099609375,9.763554573059082,1.53707754611969,-0.011971008032560349
1772739589088843000,1.373843017578125,9.720458984375,1.5634137392044067,-0.11971008777618408
1772739589109056300,1.39405615234375,9.643844604492188,1.6328455209732056,-0.2992752194404602
1772739589118967800,1.4039677734375,9.643844604492188,1.6376339197158813,-0.28969839215278625
1772739589128978000,1.41397802734375,9.696516990661621,1.6903064250946045,-0.24899697303771973
1772739589139031600,1.424031494140625,9.794678688049316,1.745373010635376,-0.31603461503982544
1772739589149025800,1.43402587890625,9.799467086791992,1.6903064250946045,-0.2561795711517334
1772739589159085800,1.4440859375,9.861717224121094,1.6112977266311646,-0.2801215946674347
1772739589169104600,1.454104736328125,9.835380554199219,1.501164436340332,-0.24899697303771973
1772739589179473400,1.464473388671875,9.770736694335938,1.50355863571167,-0.19393034279346466
1772739589189154000,1.474154052734375,9.787496566772461,1.4676456451416016,-0.12449848651885986
1772739589199197400,1.484197509765625,9.856928825378418,1.381454348564148,-0.10055647045373917
1772739589209248800,1.494248779296875,9.883264541625977,1.4317326545715332,-0.06224924325942993
1772739589219308500,1.50430859375,9.847352027893066,1.4867992401123047,-0.11971008777618408
1772739589229304600,1.5143046875,9.691728591918945,1.4437036514282227,-0.08619125932455063
1772739589239950300,1.524950439453125,9.639056205749512,1.5155296325683594,-0.047884032130241394
1772739589249359000,1.534359130859375,9.66299819946289,1.4724340438842773,-0.0454898327589035
1772739589261026300,1.5460263671875,9.651026725769043,1.436521053314209,-0.019153613597154617
1772739589269432000,1.55443212890625,9.619902610778809,1.5155296325683594,0.014365210197865963
1772739589279776300,1.5647763671875,9.569623947143555,1.455674648284912,-0.011971008032560349
1772739589289477400,1.574477294921875,9.588777542114258,1.4867992401123047,0
1772739589299537200,1.584537109375,9.667786598205566,1.5059528350830078,0.05985504388809204
1772739589319573500,1.604573486328125,9.703699111938477,1.3527239561080933,0.1149216815829277
1772739589329585700,1.614585693359375,9.622296333312988,1.2282254695892334,0.1149216815829277
1772739589339642000,1.62464208984375,9.603142738342285,1.292868971824646,0.08619125932455063
1772739589349627000,1.634626953125,9.63187313079834,1.4413094520568848,0.12210428714752197
1772739589359659000,1.644658935546875,9.66539192199707,1.455674648284912,0.06464344263076782
1772739589369659400,1.654659423828125,9.684545516967773,1.5107412338256836,0.05746084079146385
1772739589380027600,1.665027587890625,9.674968719482422,1.4724340438842773,-0.028730420395731926
1772739589389698600,1.674698486328125,9.622296333312988,1.5610195398330688,-0.040701430290937424
1772739589400349700,1.685349609375,9.619902610778809,1.5921441316604614,-0.011971008032560349
1772739589422301700,1.7073017578125,9.605537414550781,1.5394717454910278,-0.035913024097681046
1772739589429832200,1.714832275390625,9.672574996948242,1.3958195447921753,-0.047884032130241394
1772739589439870000,1.724869873046875,9.794678688049316,1.400607943534851,-0.12210428714752197
1772739589449873000,1.734872802734375,9.785101890563965,1.4389152526855469,-0.0694318488240242
1772739589459930400,1.744930419921875,9.744400978088379,1.3551181554794312,-0.08619125932455063
1772739589469920800,1.754920654296875,9.751583099365234,1.3910311460494995,-0.016759412363171577
1772739589480270600,1.7652705078125,9.667786598205566,1.4508862495422363,-0.10773907601833344
1772739589489994500,1.774994384765625,9.567230224609375,1.5945383310317993,-0.1149216815829277
1772739589500049000,1.785048828125,9.651026725769043,1.6328455209732056,-0.12449848651885986
1772739589520074200,1.80507421875,9.646238327026367,1.723825216293335,-0.13168109953403473
1772739589530078700,1.81507861328125,9.68694019317627,1.6974890232086182,-0.10534487664699554
1772739589540138500,1.825138427734375,9.684545516967773,1.6328455209732056,-0.035913024097681046
1772739589550135600,1.835135498046875,9.742006301879883,1.6065093278884888,-0.07661445438861847
1772739589560777000,1.84577685546875,9.646238327026367,1.6041151285171509,-0.05267243832349777
1772739589570176800,1.8551767578125,9.751583099365234,1.4652514457702637,-0.047884032130241394
1772739589582184200,1.86718408203125,9.63187313079834,1.3048399686813354,-0.05267243832349777
1772739589590248200,1.875248291015625,9.634267807006836,1.4101848602294922,-0.05267243832349777
1772739589600277800,1.88527783203125,9.682151794433594,1.5490485429763794,-0.038307227194309235
1772739589610305500,1.895305419921875,9.725247383117676,1.5490485429763794,-0.05027823522686958
1772739589630346000,1.915345947265625,9.730035781860352,1.6328455209732056,-0.05267243832349777
1772739589640394000,1.92539404296875,9.737217903137207,1.5107412338256836,0.040701430290937424
1772739589650413000,1.9354130859375,9.768342971801758,1.5945383310317993,-0.08619125932455063
1772739589660468700,1.94546875,9.706093788146973,1.580173134803772,-0.0454898327589035
1772739589670465300,1.95546533203125,9.701305389404297,1.5897499322891235,-0.0071826050989329815
1772739589680815000,1.965815185546875,9.643844604492188,1.5394717454910278,-0.016759412363171577
1772739589690532600,1.97553271484375,9.725247383117676,1.414973258972168,-0.06224924325942993
1772739589700588300,1.98558837890625,9.674968719482422,1.338358759880066,0.0071826050989329815
1772739589710581200,1.995581298828125,9.682151794433594,1.3623007535934448,0.011971008032560349
1772739589721233000,2.00623291015625,9.627084732055664,1.4221558570861816,-0.05985504388809204
1772739589730648600,2.015648681640625,9.667786598205566,1.5442601442337036,0.021547814831137657
1772739589743194600,2.028194580078125,9.667786598205566,1.4508862495422363,0.05746084079146385
1772739589750731500,2.0357314453125,9.708487510681152,1.4772224426269531,0.05027823522686958
1772739589760771800,2.045771728515625,9.641449928283691,1.4963760375976562,0.09576806426048279
1772739589770788600,2.05578857421875,9.703699111938477,1.4628572463989258,-0.033518824726343155
1772739589781164000,2.0661640625,9.658209800720215,1.5298948287963867,0.05506663769483566
1772739589790839000,2.075839111328125,9.651026725769043,1.3263877630233765,0.10295066982507706
1772739589800871000,2.085870849609375,9.59835433959961,1.4077905416488647,0.05267243832349777
1772739589810881300,2.09588134765625,9.646238327026367,1.3120225667953491,0.035913024097681046
1772739589820932600,2.1059326171875,9.610325813293457,1.4413094520568848,0.14365209639072418
1772739589840954400,2.125954345703125,9.473855972290039,1.3335703611373901,0.13168109953403473
1772739589850962700,2.135962646484375,9.50498104095459,1.4293384552001953,0.07422025501728058
1772739589861018400,2.146018310546875,9.53849983215332,1.50355863571167,-0.0694318488240242
1772739589871001300,2.15600146484375,9.643844604492188,1.460463047027588,0.004788403399288654
1772739589881955300,2.166955322265625,9.622296333312988,1.4867992401123047,0.031124621629714966
1772739589891047000,2.176046875,9.648633003234863,1.3982137441635132,-0.035913024097681046
1772739589902692900,2.18769287109375,9.691728591918945,1.280897855758667,-0.13168109953403473
1772739589911093500,2.196093505859375,9.701305389404297,1.3335703611373901,-0.08379705995321274
1772739589921122000,2.2061220703125,9.739612579345703,1.316810965538025,-0.08858546614646912
1772739589941176600,2.226176513671875,9.775525093078613,1.359906554222107,-0.14604631066322327
1772739589951159800,2.236159912109375,9.821015357971191,1.4245500564575195,-0.16759411990642548
1772739589961192000,2.24619189453125,9.821015357971191,1.4053963422775269,-0.1412578970193863
1772739589971202600,2.25620263671875,9.8784761428833,1.4532804489135742,-0.14365209639072418
1772739589981583600,2.26658349609375,9.813833236694336,1.4700398445129395,-0.181959331035614
1772739589991257000,2.276257080078125,9.761159896850586,1.5298948287963867,-0.14844051003456116
1772739590001294600,2.286294677734375,9.768342971801758,1.4891934394836426,-0.18914192914962769
1772739590011327700,2.29632763671875,9.708487510681152,1.482010841369629,-0.08140286058187485
1772739590021390000,2.30639013671875,9.708487510681152,1.3503297567367554,-0.08140286058187485
1772739590042039000,2.3270390625,9.739612579345703,1.2713210582733154,-0.16519992053508759
1772739590051443700,2.336443603515625,9.742006301879883,1.2641384601593018,-0.1628057211637497
1772739590063993000,2.3489931640625,9.746794700622559,1.3766659498214722,-0.19871874153614044
1772739590071527200,2.356527099609375,9.749189376831055,1.41257905960083,-0.13407529890537262
1772739590081883100,2.366883056640625,9.72285270690918,1.5179238319396973,-0.15322890877723694
1772739590091590100,2.376590087890625,9.804255485534668,1.4748282432556152,-0.2298433631658554
1772739590101659100,2.3866591796875,9.782708168029785,1.4676456451416016,-0.15801730751991272
1772739590111646700,2.396646728515625,9.734824180603027,1.37906014919281,-0.2322375625371933
1772739590121982500,2.406982421875,9.682151794433594,1.41257905960083,-0.26575639843940735
1772739590141757400,2.42675732421875,9.600749015808105,1.259350061416626,-0.2106897532939911
1772739590151748600,2.43674853515625,9.643844604492188,1.3192051649093628,-0.2082955539226532
1772739590161791000,2.446791015625,9.691728591918945,1.414973258972168,-0.2059013396501541
1772739590171830800,2.456830810546875,9.75637149810791,1.3982137441635132,-0.23702596127986908
1772739590182201600,2.46720166015625,9.792284965515137,1.3718775510787964,-0.22026655077934265
1772739590191878700,2.476878662109375,9.744400978088379,1.4077905416488647,-0.15562310814857483
1772739590202520300,2.487520263671875,9.742006301879883,1.3982137441635132,-0.14365209639072418
1772739590211924700,2.4969248046875,9.804255485534668,1.3623007535934448,-0.18914192914962769
1772739590223626500,2.50862646484375,9.727641105651855,1.3838485479354858,-0.18914192914962769
1772739590231980300,2.516980224609375,9.763554573059082,1.4053963422775269,-0.12928688526153564
1772739590252025000,2.537025146484375,9.727641105651855,1.359906554222107,-0.08379705995321274
1772739590262078200,2.547078125,9.679757118225098,1.403002142906189,-0.16759411990642548
1772739590272066800,2.55706689453125,9.725247383117676,1.4484920501708984,-0.10534487664699554
1772739590282408000,2.567407958984375,9.641449928283691,1.3910311460494995,-0.1604115068912506
1772739590292109300,2.577109375,9.636661529541016,1.3646949529647827,-0.11971008777618408
1772739590302161000,2.587160888671875,9.63187313079834,1.3192051649093628,-0.06464344263076782
1772739590312148200,2.597148193359375,9.66539192199707,1.45806884765625,-0.09576806426048279
1772739590322180600,2.6071806640625,9.708487510681152,1.3862427473068237,-0.15801730751991272
1772739590332185900,2.617185791015625,9.684545516967773,1.4389152526855469,-0.16998831927776337
1772739590352242700,2.63724267578125,9.835380554199219,1.403002142906189,-0.16519992053508759
1772739590362892300,2.647892333984375,9.828198432922363,1.3718775510787964,-0.11971008777618408
1772739590372331300,2.657331298828125,9.732429504394531,1.3934253454208374,-0.181959331035614
1772739590385215500,2.670215576171875,9.696516990661621,1.3431471586227417,-0.26096799969673157
1772739590392677400,2.677677490234375,9.718064308166504,1.3623007535934448,-0.24181437492370605
1772739590402481400,2.6874814453125,9.658209800720215,1.3479355573654175,-0.2513911724090576
1772739590412536300,2.697536376953125,9.703699111938477,1.4437036514282227,-0.1843535304069519
1772739590422605600,2.70760546875,9.658209800720215,1.436521053314209,-0.15562310814857483
1772739590432605700,2.717605712890625,9.63187313079834,1.41257905960083,-0.1388636976480484
1772739590442654500,2.727654541015625,9.710882186889648,1.4101848602294922,-0.09576806426048279
1772739590462752300,2.747752197265625,9.658209800720215,1.4101848602294922,-0.05985504388809204
1772739590472760300,2.75776025390625,9.672574996948242,1.403002142906189,-0.06224924325942993
1772739590483125000,2.768125,9.72285270690918,1.41257905960083,-0.014365210197865963
1772739590492876800,2.777876708984375,9.63187313079834,1.3024457693099976,-0.05746084079146385
1772739590502941200,2.787941162109375,9.627084732055664,1.3718775510787964,-0.033518824726343155
1772739590512946200,2.7979462890625,9.607931137084961,1.3263877630233765,-0.05506663769483566
1772739590523609300,2.808609375,9.651026725769043,1.3335703611373901,-0.023942016065120697
1772739590533041000,2.818041015625,9.691728591918945,1.359906554222107,-0.07422025501728058
1772739590544705300,2.829705322265625,9.739612579345703,1.4245500564575195,-0.07422025501728058
1772739590563186400,2.8481865234375,9.916783332824707,1.2545616626739502,0.016759412363171577
1772739590573206000,2.8582060546875,9.885659217834473,1.2497732639312744,0.15322890877723694
1772739590583588900,2.8685888671875,9.847352027893066,1.1180921792984009,0.06703764945268631
1772739590593279200,2.878279296875,9.864110946655273,1.194706678390503,0.05746084079146385
1772739590603331600,2.88833154296875,9.998186111450195,1.2641384601593018,0.12210428714752197
1772739590613360400,2.8983603515625,10.046070098876953,1.2330138683319092,0.014365210197865963
1772739590623427000,2.908427001953125,10.000580787658691,1.357512354850769,0.21787235140800476
1772739590633428700,2.9184287109375,10.050858497619629,1.41257905960083,0.1628057211637497
1772739590643477500,2.9284775390625,9.849745750427246,1.6424223184585571,0.1412578970193863
1772739590663565000,2.94856494140625,9.579200744628906,1.625662922859192,0.2082955539226532
1772739590673567700,2.958567626953125,9.421183586120605,1.8602946996688843,0.06464344263076782
1772739590684536300,2.969536376953125,9.373299598693848,1.7405846118927002,-0.12210428714752197
1772739590693665000,2.9786650390625,9.21288776397705,1.659181833267212,-0.24899697303771973
1772739590706221300,2.99122119140625,9.188945770263672,1.6735470294952393,-0.42377370595932007
1772739590713763800,2.998763916015625,9.308655738830566,1.6974890232086182,-0.45010992884635925
1772739590723810000,3.00881005859375,9.253589630126953,1.7166426181793213,-0.47644615173339844
1772739590733834000,3.018833984375,9.433155059814453,1.702277421951294,-0.5147533416748047
1772739590743901200,3.028901123046875,9.437943458557129,1.8195933103561401,-0.507570743560791
1772739590753897200,3.038897216796875,9.313444137573242,1.9105730056762695,-0.5674257874488831
1772739590773987600,3.058987548828125,9.746794700622559,1.577778935432434,-0.49320554733276367
1772739590784362800,3.06936279296875,9.746794700622559,1.4939818382263184,-0.7015010714530945
1772739590794052000,3.079052001953125,9.823410034179688,1.3934253454208374,-0.5817909836769104
1772739590804123000,3.089122802734375,9.828198432922363,1.3838485479354858,-0.5793967843055725
1772739590814177300,3.09917724609375,9.792284965515137,1.41257905960083,-0.4836287498474121
1772739590824255000,3.1092548828125,9.703699111938477,1.3862427473068237,-0.5793967843055725
1772739590834269000,3.11926904296875,9.749189376831055,1.3527239561080933,-0.44771572947502136
1772739590844941300,3.12994140625,9.591172218322754,1.3263877630233765,-0.3423708379268646
1772739590854383400,3.13938330078125,9.555258750915527,1.4317326545715332,-0.19393034279346466
1772739590866097400,3.151097412109375,9.526528358459473,1.3934253454208374,-0.1604115068912506
1772739590874477800,3.159477783203125,9.488221168518066,1.4700398445129395,-0.090979665517807
1772739590884835600,3.169835693359375,9.509769439697266,1.4939818382263184,-0.07661445438861847
1772739590894562600,3.1795625,9.521739959716797,1.4221558570861816,0
1772739590904626000,3.1896259765625,9.6989107131958,1.4077905416488647,0.05267243832349777
1772739590914623500,3.19962353515625,9.62947940826416,1.2425906658172607,0.13407529890537262
1772739590924670700,3.209670654296875,9.591172218322754,1.259350061416626,0.11252748221158981
1772739590934690000,3.21968994140625,9.624691009521484,1.4197616577148438,0.026336219161748886
1772739590944757500,3.229757568359375,9.672574996948242,1.4221558570861816,0.10295066982507706
1772739590954755600,3.239755615234375,9.730035781860352,1.5107412338256836,0.043095629662275314
1772739590964800500,3.249800537109375,9.720458984375,1.50355863571167,-0.026336219161748886
1772739590985190100,3.270190185546875,9.75397777557373,1.4413094520568848,-0.05746084079146385
1772739590994876000,3.2798759765625,10.014945983886719,1.625662922859192,-0.24420857429504395
1772739591005537000,3.290537109375,10.11789608001709,1.699883222579956,-0.10055647045373917
1772739591014958800,3.299958740234375,10.249577522277832,1.5682021379470825,-0.0454898327589035
1772739591027508000,3.312508056640625,10.201693534851074,1.625662922859192,-0.10055647045373917
1772739591035048400,3.32004833984375,10.204087257385254,1.6089035272598267,-0.07661445438861847
1772739591045097700,3.33009765625,9.986215591430664,1.6184803247451782,-0.13168109953403473
1772739591055109600,3.340109619140625,9.885659217834473,1.6352397203445435,-0.15083470940589905
1772739591065162000,3.350161865234375,9.890447616577148,1.6519991159439087,-0.18914192914962769
1772739591085507000,3.370507080078125,9.801861763000488,1.7142484188079834,-0.08140286058187485
1772739591095214800,3.38021484375,9.864110946655273,1.7597382068634033,-0.011971008032560349
1772739591105266200,3.39026611328125,9.856928825378418,1.5873557329177856,-0.2801215946674347
1772739591115254800,3.4002548828125,9.95748519897461,1.4293384552001953,-0.47165772318840027
1772739591125292500,3.41029248046875,9.916783332824707,1.403002142906189,-0.5027823448181152
1772739591135304200,3.42030419921875,9.734824180603027,1.5083470344543457,-0.5410895943641663
1772739591145366000,3.430365966796875,9.799467086791992,1.8076223134994507,-0.507570743560791
1772739591155357200,3.440357177734375,9.871294021606445,2.0829553604125977,-0.48602294921875
1772739591166002400,3.45100244140625,9.730035781860352,2.343923568725586,-0.2561795711517334
1772739591175413000,3.4604130859375,9.655815124511719,2.2170307636260986,-0.10295066982507706
1772739591195488800,3.48048876953125,9.569623947143555,2.0877439975738525,-0.17477671802043915
1772739591205532400,3.490532470703125,9.593565940856934,2.0901381969451904,-0.11013327538967133
1772739591215575600,3.500575439453125,9.782708168029785,2.073378562927246,0.0933738648891449
1772739591225628700,3.510628662109375,9.90241813659668,2.0877439975738525,0.35434186458587646
1772739591235619300,3.520619384765625,9.943120002746582,2.3918075561523438,0.545877993106842
1772739591245658600,3.53065869140625,9.646238327026367,2.8826189041137695,0.9959878921508789
1772739591255679500,3.540679443359375,9.493009567260742,3.00711727142334,1.2737152576446533
1772739591265736200,3.550736083984375,9.370905876159668,3.4763808250427246,1.4987702369689941
1772739591275732500,3.560732421875,9.210494041442871,3.7158010005950928,1.800439715385437
1772739591305873700,3.590873779296875,9.457097053527832,4.220977783203125,2.3511061668395996
1772739591315862800,3.60086279296875,9.943120002746582,4.235342979431152,2.293645143508911
1772739591326512400,3.611512451171875,10.441113471984863,4.474762916564941,2.207453966140747
1772739591335943700,3.620943603515625,10.654197692871094,4.350264549255371,2.1284453868865967
1772739591348487700,3.63348779296875,10.706870079040527,4.206612586975098,1.8770540952682495
1772739591356020700,3.641020751953125,10.802638053894043,4.247313976287842,1.5538369417190552
1772739591366057700,3.6510576171875,10.94150161743164,4.400542736053467,1.1827356815338135
1772739591376202000,3.661201904296875,11.046846389770508,4.67827033996582,1.0055646896362305
1772739591386448400,3.671448486328125,10.99656867980957,4.869806289672852,0.8834604024887085
1772739591406165200,3.691165283203125,10.771512985229492,5.099649429321289,0.5961562395095825
1772739591416195000,3.701195068359375,10.484209060668945,5.257667064666748,0.3974374830722809
1772739591426268700,3.7112685546875,10.211270332336426,5.264849662780762,0.1364694982767105
1772739591436260000,3.721260009765625,9.787496566772461,5.011064052581787,-0.035913024097681046
1772739591446301000,3.731301025390625,9.514557838439941,4.683058738708496,-0.3878606855869293
1772739591456310000,3.74131005859375,9.512163162231445,4.352658748626709,-0.5770025849342346
1772739591466362000,3.751362060546875,9.397241592407227,3.998316764831543,-0.9145850539207458
1772739591476358100,3.761358154296875,9.330204010009766,3.6128504276275635,-1.256955862045288
1772739591487315700,3.772315673828125,9.038111686706543,3.162740468978882,-1.4652514457702637
1772739591510165200,3.795165283203125,8.343792915344238,1.2425906658172607,-1.766920804977417
1772739591518525400,3.803525390625,8.042123794555664,0.3902548849582672,-1.6927006244659424
1772739591528586500,3.81358642578125,7.898471355438232,-0.5099649429321289,-1.3958195447921753
1772739591538600200,3.82360009765625,7.690176010131836,-2.0805611610412598,-1.1803414821624756
1772739591548672000,3.833672119140625,7.2137298583984375,-3.88818359375,-1.53707754611969
1772739591558665200,3.843665283203125,6.789956092834473,-5.6191911697387695,-1.8602946996688843
1772739591569185500,3.854185546875,6.447585105895996,-7.015010833740234,-2.3750481605529785
1772739591578727700,3.863727783203125,6.2416839599609375,-7.783549785614014,-2.5115175247192383
1772739591589087000,3.8740869140625,6.215347766876221,-7.738059997558594,-2.5019407272338867
1772739591608836400,3.89383642578125,7.465120792388916,-7.400477409362793,-1.946485996246338
1772739591618870000,3.9038701171875,7.649474620819092,-7.513004779815674,-1.4221558570861816
1772739591628909000,3.913908935546875,7.716512203216553,-8.281543731689453,-1.139639973640442
1772739591638913300,3.923913330078125,7.960720539093018,-8.702922821044922,-0.9672574996948242
1772739591649581800,3.934581787109375,7.613561630249023,-8.159439086914062,-0.9696516990661621
1772739591658978300,3.943978271484375,7.496245384216309,-7.146692276000977,-1.1252747774124146
1772739591671500300,3.956500244140625,7.5968017578125,-6.234501361846924,-1.2401964664459229
1772739591679056400,3.964056396484375,7.848193168640137,-5.623979568481445,-1.0031704902648926
1772739591689419000,3.9744189453125,7.879317760467529,-5.207388877868652,-0.6703764796257019
1772739591699109000,3.984109130859375,7.718906402587891,-4.55616569519043,-0.3974374830722809
1772739591719156700,4.00415673828125,7.254431247711182,-5.348646640777588,-0.2825157940387726
1772739591729222700,4.01422265625,7.046135425567627,-5.341464042663574,-0.5506663918495178
1772739591739225300,4.024225341796875,7.225700855255127,-5.178658485412598,-0.6631938815116882
1772739591749256200,4.034256103515625,7.647080421447754,-4.948814868927002,-0.3423708379268646
1772739591759260700,4.0442607421875,7.771578788757324,-4.333505153656006,0.16998831927776337
1772739591769325800,4.054325927734375,7.649474620819092,-3.7612907886505127,0.507570743560791
1772739591779319300,4.0643193359375,7.752425193786621,-3.5649664402008057,0.5889736413955688
1772739591789668000,4.074668212890625,7.615955829620361,-3.552995204925537,0.5123591423034668
1772739591799359000,4.08435888671875,7.599195957183838,-3.7493197917938232,0.4884171485900879
1772739591810030000,4.095030029296875,7.642292022705078,-4.177882194519043,0.5171475410461426
1772739591819441200,4.104441162109375,7.467514991760254,-4.668693542480469,0.5051765441894531
1772739591831081700,4.116081787109375,7.690176010131836,-4.611232280731201,0.38307225704193115
1772739591839495000,4.124494873046875,8.075642585754395,-4.201824188232422,0.5482721924781799
1772739591849569500,4.134569580078125,8.312667846679688,-3.687070608139038,0.6033388376235962
1772739591859567600,4.144567626953125,8.286332130432129,-3.581725835800171,0.5913678407669067
1772739591869601500,4.1546015625,8.588001251220703,-3.890577793121338,0.35913026332855225
1772739591879598300,4.164598388671875,8.640673637390137,-4.110844135284424,0.038307227194309235
1772739591889957400,4.174957275390625,8.762778282165527,-4.065354347229004,-0.07422025501728058
1772739591899636000,4.184635986328125,8.975862503051758,-4.2544965744018555,-0.11013327538967133
1772739591919680800,4.2046806640625,9.32541561126709,-3.8498764038085938,-0.023942016065120697
1772739591929730300,4.214730224609375,8.29830265045166,-3.5003228187561035,-1.8531121015548706
1772739591939708400,4.22470849609375,11.338939666748047,-3.361459255218506,-1.7741034030914307
1772739591949738200,4.23473828125,16.991649627685547,-8.310274124145508,2.4612393379211426
1772739591959742700,4.24474267578125,12.284648895263672,-6.160281181335449,2.889801502227783
1772739591970400300,4.255400146484375,9.193734169006348,-2.9017724990844727,0.646434485912323
1772739591979782100,4.2647822265625,8.904036521911621,-2.1045033931732178,-1.3024457693099976
1772739591992621300,4.277621337890625,8.638279914855957,-2.0829553604125977,-1.987187385559082
1772739592000085800,4.285085693359375,8.908824920654297,-2.5043349266052246,-1.3838485479354858
1772739592019915000,4.3049150390625,8.516175270080566,-3.6774938106536865,-0.828393816947937
1772739592029942800,4.31494287109375,8.56645393371582,-3.6176388263702393,-0.7948749661445618
1772739592039943000,4.32494287109375,8.573636054992676,-3.2082302570343018,-1.213860273361206
1772739592049992000,4.334991943359375,8.619126319885254,-3.0190882682800293,-1.5155296325683594
1772739592059984000,4.34498388671875,8.628703117370605,-3.0310592651367188,-1.4173674583435059
1772739592070010600,4.3550107421875,9.074024200439453,-3.112462282180786,-0.8619126081466675
1772739592080014800,4.365014892578125,9.186552047729492,-3.2537200450897217,-0.569819986820221
1772739592090373400,4.375373291015625,9.605537414550781,-3.4380736351013184,-0.24660277366638184
1772739592100057600,4.3850576171875,9.871294021606445,-3.7038300037384033,-0.2753331959247589
1772739592110089000,4.3950888671875,10.08198356628418,-3.952826976776123,0.15322890877723694
1772739592130750700,4.415750732421875,9.311050415039062,-3.536235809326172,-0.1628057211637497
1772739592140135400,4.425135498046875,9.188945770263672,-3.270479440689087,-0.10055647045373917
1772739592151799800,4.4367998046875,9.248801231384277,-2.9664158821105957,-0.10295066982507706
1772739592160185000,4.44518505859375,9.464279174804688,-2.691082715988159,-0.35434186458587646
1772739592170238500,4.455238525390625,8.868123054504395,-2.911349296569824,-0.7757213711738586
1772739592180217600,4.465217529296875,8.640673637390137,-3.406949043273926,-0.33279404044151306
1772739592190554000,4.47555419921875,9.141061782836914,-3.550601005554199,0.3208230137825012
1772739592200247600,4.48524755859375,9.29189682006836,-3.361459255218506,0.15801730751991272
1772739592210297000,4.495297119140625,9.445125579833984,-3.220201253890991,-0.38067805767059326
1772739592230327300,4.515327392578125,9.265560150146484,-3.0837318897247314,-0.3423708379268646
1772739592240337000,4.5253369140625,9.308655738830566,-3.1914708614349365,-0.31842881441116333
1772739592250399000,4.53539892578125,9.232041358947754,-3.0142998695373535,-0.43335050344467163
1772739592260381000,4.545380859375,9.246406555175781,-2.889801502227783,-0.5650315880775452
1772739592270409000,4.555408935546875,9.308655738830566,-2.846705913543701,-0.6607996821403503
1772739592280408600,4.56540869140625,9.346963882446289,-2.964021682739258,-0.6368576288223267
1772739592291381000,4.576381103515625,9.208099365234375,-3.066972494125366,-0.7948749661445618
1772739592300470500,4.585470458984375,9.136273384094238,-3.098097085952759,-0.6607996821403503
1772739592313004000,4.598004150390625,8.841787338256836,-3.2609026432037354,-0.7637503147125244
1772739592330574000,4.615573974609375,8.712499618530273,-3.421314239501953,-0.47165772318840027
1772739592340561400,4.6255615234375,8.949525833129883,-3.5410242080688477,-0.22744916379451752
1772739592350589200,4.635589111328125,9.10993766784668,-3.646369218826294,-0.019153613597154617
1772739592360588000,4.645588134765625,9.188945770263672,-3.4356794357299805,0.10295066982507706
1772739592370640100,4.65564013671875,9.421183586120605,-3.1244332790374756,0.07422025501728058
1772739592380628500,4.66562841796875,9.41639518737793,-3.0861260890960693,-0.033518824726343155
1772739592390985500,4.6759853515625,9.62947940826416,-3.071760892868042,-0.21547815203666687
1772739592400679200,4.68567919921875,9.75397777557373,-2.6360161304473877,-0.16759411990642548
1772739592410733600,4.695733642578125,9.710882186889648,-2.229001760482788,-0.35673606395721436
1772739592420746200,4.705746337890625,9.718064308166504,-2.0398597717285156,-0.5051765441894531
1772739592440788500,4.72578857421875,9.682151794433594,-1.4484920501708984,-0.629675030708313
1772739592451454700,4.736454833984375,9.871294021606445,-1.3694833517074585,-0.4572925269603729
1772739592460838400,4.74583837890625,9.876082420349121,-1.338358759880066,-0.5482721924781799
1772739592472470300,4.75747021484375,9.485827445983887,-1.8579005002975464,-0.6823474764823914
1772739592480878300,4.76587841796875,9.248801231384277,-2.0470423698425293,-0.7230489253997803
1772739592491254000,4.77625390625,9.102754592895508,-2.4229321479797363,-1.0271124839782715
1772739592500962000,4.785962158203125,8.899248123168945,-2.9520506858825684,-1.1228805780410767
1772739592511000300,4.796000244140625,8.772355079650879,-3.2345664501190186,-0.8355764150619507
1772739592521009400,4.806009521484375,8.973467826843262,-3.3063924312591553,-0.35673606395721436
1772739592531078700,4.81607861328125,9.014169692993164,-3.2968156337738037,-0.3998316824436188
1772739592551138000,4.836137939453125,9.030928611755371,-3.488351821899414,-0.828393816947937
1772739592561157400,4.846157470703125,9.009381294250488,-3.732560396194458,-0.5626373887062073
1772739592571236000,4.856236083984375,9.100360870361328,-3.8546648025512695,-0.48602294921875
1772739592581240800,4.86624072265625,9.042900085449219,-3.8762125968933105,-0.5817909836769104
1772739592591615200,4.876615234375,9.117119789123535,-4.055777549743652,-0.395043283700943
1772739592601303600,4.886303466796875,9.222464561462402,-4.180276393890381,-0.4118026793003082
1772739592612019000,4.89701904296875,9.186552047729492,-4.127603530883789,-0.40462008118629456
1772739592621417500,4.90641748046875,9.174580574035645,-3.9647979736328125,-0.5339069962501526
1772739592633947600,4.91894775390625,8.841787338256836,-3.97916316986084,-0.6607996821403503
1772739592651581200,4.936581298828125,9.102754592895508,-4.290409564971924,-0.6631938815116882
1772739592661583000,4.9465830078125,9.244012832641602,-4.046200752258301,-0.608127236366272
1772739592671632100,4.956632080078125,9.32302188873291,-3.7181951999664307,-0.569819986820221
1772739592681659600,4.96665966796875,9.533711433410645,-3.514688014984131,-0.6224924325942993
1772739592692041200,4.977041259765625,9.514557838439941,-3.335123062133789,-0.7445967197418213
1772739592701743900,4.986743896484375,9.402029991149902,-2.9759926795959473,-0.7398083209991455
1772739592711796700,4.996796630859375,9.20091724395752,-3.0406360626220703,-0.9409212470054626
1772739592721816800,5.00681689453125,9.344569206237793,-2.6815059185028076,-0.706289529800415
1772739592731906300,5.01690625,8.832210540771484,-2.8347349166870117,-0.8475474119186401
1772739592751957800,5.036957763671875,9.315838813781738,-2.6599581241607666,-0.9792284965515137
1772739592761982000,5.04698193359375,8.583212852478027,-2.612074136734009,-1.0103530883789062
1772739592772658200,5.057658203125,9.167398452758789,-2.9735984802246094,-0.05506663769483566
1772739592782087700,5.067087646484375,9.516951560974121,-3.3446998596191406,0.22026655077934265
1772739592794090800,5.0790908203125,9.495404243469238,-3.066972494125366,-0.44771572947502136
1772739592802188300,5.087188232421875,9.679757118225098,-3.026270866394043,-0.14844051003456116
1772739592812253400,5.09725341796875,9.636661529541016,-3.0119056701660156,0.031124621629714966
1772739592822290000,5.1072900390625,9.215282440185547,-2.5546131134033203,0.014365210197865963
1772739592832342300,5.11734228515625,9.399636268615723,-2.647987127304077,0.2082955539226532
1772739592852446200,5.1374462890625,9.409213066101074,-3.043030261993408,0.20111294090747833
1772739592862464300,5.14746435546875,9.437943458557129,-3.3039982318878174,0.40940847992897034
1772739592872524800,5.15752490234375,9.157821655273438,-3.7158010005950928,1.0247182846069336
1772739592882546200,5.167546142578125,9.512163162231445,-4.223371982574463,1.3910311460494995
1772739592892928500,5.177928466796875,9.093177795410156,-3.6343982219696045,1.1540051698684692
1772739592902629400,5.18762939453125,8.834604263305664,-3.4380736351013184,0.7972691655158997
1772739592912676900,5.1976767578125,8.645462036132812,-3.136404275894165,0.6009446382522583
1772739592922694700,5.207694580078125,8.518569946289062,-2.760514497756958,0.31603461503982544
1772739592933366000,5.218365966796875,8.401253700256348,-2.403778553009033,-0.0071826050989329815
1772739592955286500,5.24028662109375,8.571242332458496,-2.255337953567505,-0.15322890877723694
1772739592962988800,5.24798876953125,8.571242332458496,-2.0685901641845703,-0.35913026332855225
1772739592972913400,5.257913330078125,8.49941635131836,-2.0231003761291504,-0.48602294921875
1772739592982907100,5.2679072265625,8.406042098999023,-2.0422539710998535,-0.6177040338516235
1772739592993260300,5.27826025390625,8.161833763122559,-2.1380221843719482,-0.646434485912323
1772739593002959400,5.28795947265625,8.08043098449707,-2.161964178085327,-0.7230489253997803
1772739593013019600,5.29801953125,8.848969459533691,-2.4013843536376953,0.33997663855552673
1772739593023043600,5.308043701171875,9.284713745117188,-2.2361843585968018,-0.5099649429321289
1772739593033085400,5.31808544921875,10.340557098388672,-3.2321722507476807,-0.1388636976480484
1772739593053165300,5.338165283203125,10.92953109741211,-4.390965938568115,-0.40462008118629456
1772739593063169000,5.3481689453125,10.757147789001465,-5.224148273468018,-1.0295066833496094
1772739593073218600,5.358218505859375,9.801861763000488,-4.259284973144531,-1.0654197931289673
1772739593083231700,5.368231689453125,9.181763648986816,-3.603273630142212,-0.8547300100326538
1772739593094219500,5.379219482421875,8.7484130859375,-3.4787750244140625,-0.5985504388809204
1772739593103323600,5.38832373046875,8.655038833618164,-3.378218650817871,-0.5339069962501526
1772739593114967300,5.39996728515625,8.834604263305664,-3.270479440689087,-0.545877993106842
1772739593123392300,5.408392333984375,8.975862503051758,-3.1196448802948,-0.5099649429321289
1772739593133453600,5.41845361328125,9.275136947631836,-2.920926094055176,-0.507570743560791
1772739593143449300,5.428449462890625,9.469067573547363,-2.873042106628418,-0.3926490843296051
1772739593173590500,5.458590576171875,9.457097053527832,-3.050212860107422,-0.5410895943641663
1772739593183601700,5.4686015625,9.141061782836914,-3.2082302570343018,-0.7110779285430908
1772739593193955600,5.47895556640625,9.169792175292969,-3.3016040325164795,-0.8858546018600464
1772739593203662800,5.488662841796875,9.093177795410156,-3.464409828186035,-0.8643068075180054
1772739593213728500,5.498728515625,9.057265281677246,-3.912125587463379,-0.7805097699165344
1772739593223756300,5.50875634765625,9.105149269104004,-3.9169139862060547,-0.5889736413955688
1772739593233806800,5.518806884765625,9.023746490478516,-3.950432777404785,-0.5027823448181152
1772739593243841800,5.528841796875,8.932766914367676,-3.6798880100250244,-0.5602431893348694
1772739593254516000,5.539515869140625,9.02135181427002,-3.531447410583496,-0.49320554733276367
1772739593276460800,5.561460693359375,8.987833023071289,-3.399766445159912,-0.608127236366272
1772739593284030000,5.569030029296875,8.87051773071289,-3.620033025741577,-0.6057330369949341
1772739593294414000,5.5794140625,8.882488250732422,-3.8498764038085938,-0.6344634294509888
1772739593304111900,5.58911181640625,8.616731643676758,-4.1395745277404785,-0.646434485912323
1772739593314159400,5.599159423828125,8.607154846191406,-4.347870349884033,-0.6105214357376099
1772739593324175600,5.609175537109375,8.585607528686523,-4.496310710906982,-0.6440402865409851
1772739593334241300,5.6192412109375,8.492233276367188,-4.350264549255371,-0.5985504388809204
1772739593344251000,5.6292509765625,8.597578048706055,-4.259284973144531,-0.6775590777397156
1772739593354299000,5.639298828125,8.734047889709473,-4.0078935623168945,-0.6153098344802856
1772739593364325600,5.64932568359375,8.89685344696045,-4.106055736541748,-0.6631938815116882
1772739593384394500,5.66939453125,8.767566680908203,-3.8307228088378906,-0.6057330369949341
1772739593394754000,5.679754150390625,8.920795440673828,-3.7493197917938232,-0.5841852426528931
1772739593404452900,5.689452880859375,8.911218643188477,-3.627215623855591,-0.6560112833976746
1772739593415125000,5.700125,9.069235801696777,-3.536235809326172,-0.524330198764801
1772739593424519200,5.709519287109375,9.057265281677246,-3.4620156288146973,-0.5051765441894531
1772739593436197600,5.72119775390625,8.995016098022461,-3.514688014984131,-0.8762778043746948
1772739593444588800,5.7295888671875,9.074024200439453,-3.507505416870117,-0.9145850539207458
1772739593454645000,5.73964501953125,9.066842079162598,-3.5889084339141846,-0.646434485912323
1772739593464633300,5.74963330078125,9.181763648986816,-3.315969467163086,-0.8259995579719543
1772739593474672600,5.759672607421875,9.133879661560059,-3.406949043273926,-0.8954314589500427
1772739593495054800,5.780054931640625,9.282320022583008,-3.318363666534424,-0.8044517636299133
1772739593504778000,5.789778076171875,9.32302188873291,-3.222595453262329,-0.8643068075180054
1772739593514823400,5.799823486328125,9.258378028869629,-3.227383852005005,-0.7398083209991455
1772739593524838000,5.809837890625,9.246406555175781,-3.19865345954895,-0.7134721279144287
1772739593534902000,5.819902099609375,9.129091262817383,-3.2345664501190186,-0.7493851184844971
1772739593544919800,5.829919921875,9.153033256530762,-3.251325845718384,-0.7876923680305481
1772739593554963000,5.839962890625,9.057265281677246,-3.442862033843994,-0.7972691655158997
1772739593564964900,5.84996484375,9.090784072875977,-3.869029998779297,-0.7038952708244324
1772739593575625500,5.86062548828125,8.856152534484863,-4.039018154144287,-0.5913678407669067
1772739593598113000,5.883113037109375,8.868123054504395,-4.019864559173584,-0.5315127968788147
1772739593605562600,5.890562744140625,8.848969459533691,-3.912125587463379,-0.5554547905921936
1772739593615151600,5.900151611328125,8.966285705566406,-3.8810009956359863,-0.5315127968788147
1772739593625163000,5.9101630859375,8.851364135742188,-3.780444383621216,-0.5410895943641663
1772739593635215600,5.920215576171875,8.93037223815918,-3.7421371936798096,-0.5961562395095825
1772739593645230000,5.93022998046875,9.006986618041992,-3.706224203109741,-0.5578489899635315
1772739593655301600,5.940301513671875,8.923190116882324,-3.6583402156829834,-0.6392518281936646
1772739593665286700,5.95028662109375,8.980650901794434,-3.77565598487854,-0.7038952708244324
1772739593675336200,5.960336181640625,8.841787338256836,-3.7684733867645264,-0.689530074596405
1772739593695719400,5.980719482421875,8.944737434387207,-3.801992416381836,-0.706289529800415
1772739593705393700,5.9903935546875,8.880094528198242,-3.8331170082092285,-0.7781155705451965
1772739593715448000,6.000447998046875,9.042900085449219,-3.6727054119110107,-0.6943184733390808
1772739593725450500,6.010450439453125,9.057265281677246,-3.6535518169403076,-0.6991068720817566
1772739593736134400,6.021134521484375,9.097966194152832,-3.6750996112823486,-0.768538773059845
1772739593745507000,6.030507080078125,9.05487060546875,-3.581725835800171,-0.8164227604866028
1772739593757159700,6.04215966796875,9.081207275390625,-3.5745432376861572,-0.8044517636299133
1772739593765584600,6.050584716796875,9.059659004211426,-3.4955344200134277,-0.8786720037460327
1772739593775645400,6.0606455078125,9.069235801696777,-3.529053211212158,-0.828393816947937
1772739593795984400,6.080984375,9.05247688293457,-3.4093432426452637,-0.7493851184844971
1772739593805695200,6.0906953125,9.057265281677246,-3.5003228187561035,-0.7182605266571045
1772739593815748000,6.100748046875,9.07641887664795,-3.4524388313293457,-0.6991068720817566
1772739593825744100,6.110744140625,9.030928611755371,-3.6152446269989014,-0.7350199222564697
1772739593835782000,6.120781982421875,9.078812599182129,-3.6104562282562256,-0.7206547260284424
1772739593845798100,6.130798095703125,9.01895809173584,-3.4955344200134277,-0.7206547260284424
1772739593855855400,6.14085546875,9.10993766784668,-3.6128504276275635,-0.7374141216278076
1772739593865844700,6.1508447265625,9.023746490478516,-3.5936968326568604,-0.7541735172271729
1772739593875880700,6.160880615234375,9.002198219299316,-3.5266590118408203,-0.768538773059845
1772739593885909500,6.170909423828125,9.078812599182129,-3.531447410583496,-0.7230489253997803
1772739593905971200,6.19097119140625,9.095572471618652,-3.6367924213409424,-0.6991068720817566
1772739593918493200,6.2034931640625,9.01895809173584,-3.555389642715454,-0.811634361743927
1772739593926057200,6.21105712890625,8.983044624328613,-3.6176388263702393,-0.7158663272857666
1772739593936120300,6.221120361328125,9.047688484191895,-3.60566782951355,-0.7374141216278076
1772739593946113800,6.23111376953125,9.064447402954102,-3.600879430770874,-0.6967126727104187
1772739593956152300,6.24115234375,9.062053680419922,-3.5170822143554688,-0.7398083209991455
1772739593966162000,6.251161865234375,8.992621421813965,-3.646369218826294,-0.7565677165985107
1772739593976220000,6.261219970703125,9.050082206726074,-3.6104562282562256,-0.7637503147125244
1772739593986221300,6.27122119140625,9.10993766784668,-3.5721490383148193,-0.667982280254364
1772739593996575000,6.281574951171875,9.057265281677246,-3.4404678344726562,-0.7781155705451965
1772739594016339000,6.3013388671875,9.14345645904541,-3.3734302520751953,-0.7661445140838623
1772739594026370000,6.3113701171875,9.138668060302734,-3.3279404640197754,-0.7661445140838623
1772739594036428000,6.321427978515625,9.157821655273438,-3.315969467163086,-0.7254431247711182
1772739594046452000,6.331451904296875,9.153033256530762,-3.4141316413879395,-0.7637503147125244
1772739594057127200,6.342127197265625,9.172186851501465,-3.4308910369873047,-0.7733271718025208
1772739594066524200,6.351524169921875,8.992621421813965,-3.5051112174987793,-0.7350199222564697
1772739594078198800,6.36319873046875,9.066842079162598,-3.56017804145813,-0.7326257228851318
1772739594086604000,6.37160400390625,9.045293807983398,-3.6296098232269287,-0.7565677165985107
1772739594096964900,6.38196484375,8.999804496765137,-3.555389642715454,-0.7206547260284424
1772739594106649000,6.391649169921875,9.160215377807617,-3.4811692237854004,-0.7733271718025208
1772739594126690000,6.41168994140625,9.074024200439453,-3.3877954483032227,-0.7829039692878723
1772739594136746800,6.421746826171875,9.124302864074707,-3.378218650817871,-0.7445967197418213
1772739594146743800,6.431743896484375,9.093177795410156,-3.3279404640197754,-0.7015010714530945
1772739594156775200,6.441775146484375,9.047688484191895,-3.49314022064209,-0.6967126727104187
1772739594166777900,6.45177783203125,9.083600997924805,-3.5194764137268066,-0.8331822156906128
1772739594176836900,6.4618369140625,9.062053680419922,-3.5960910320281982,-0.8259995579719543
1772739594186822400,6.471822509765625,9.071630477905273,-3.5482068061828613,-0.7398083209991455
1772739594197161200,6.4821611328125,9.014169692993164,-3.624821424484253,-0.7709329724311829
1772739594206854400,6.4918544921875,9.093177795410156,-3.5482068061828613,-0.8020575642585754
1772739594217513000,6.502512939453125,9.009381294250488,-3.5434184074401855,-0.7565677165985107
1772739594226906400,6.51190625,9.160215377807617,-3.4955344200134277,-0.7445967197418213
1772739594239433200,6.52443310546875,9.107542991638184,-3.488351821899414,-0.8164227604866028
1772739594246989300,6.5319892578125,9.2033109664917,-3.3423056602478027,-0.7781155705451965
1772739594257055700,6.5420556640625,9.26795482635498,-3.399766445159912,-0.7158663272857666
1772739594267052800,6.552052734375,9.133879661560059,-3.404554843902588,-0.7493851184844971
1772739594277116200,6.5621162109375,9.160215377807617,-3.3016040325164795,-0.6560112833976746
1772739594287129000,6.572129150390625,9.248801231384277,-3.265691041946411,-0.6416460275650024
1772739594297502200,6.582502197265625,9.155426979064941,-3.2106244564056396,-0.6392518281936646
1772739594307199200,6.59219921875,9.191340446472168,-3.184288263320923,-0.608127236366272
1772739594317433000,6.60243310546875,9.205705642700195,-3.2154128551483154,-0.5099649429321289
1772739594327259100,6.612259033203125,9.222464561462402,-3.227383852005005,-0.4812345504760742
1772739594337300500,6.622300537109375,9.184157371520996,-3.1268274784088135,-0.44532153010368347
1772739594347310600,6.632310546875,9.227252960205078,-3.071760892868042,-0.5147533416748047
1772739594357366500,6.642366455078125,9.14345645904541,-3.0597896575927734,-0.5793967843055725
1772739594367354400,6.652354248046875,9.100360870361328,-3.3303346633911133,-0.6009446382522583
1772739594377997300,6.662997314453125,9.114726066589355,-3.4835634231567383,-0.569819986820221
1772739594387400400,6.672400390625,9.02135181427002,-3.584120035171509,-0.5674257874488831
1772739594399357000,6.68435693359375,9.033323287963867,-3.665522813796997,-0.6607996821403503
1772739594407465200,6.69246533203125,9.105149269104004,-3.6104562282562256,-0.5793967843055725
1772739594417498400,6.702498291015625,9.05247688293457,-3.4165258407592773,-0.5530605912208557
1772739594437590300,6.72259033203125,9.169792175292969,-3.292027235031128,-0.689530074596405
1772739594447578600,6.73257861328125,9.169792175292969,-3.313575267791748,-0.6392518281936646
1772739594457611000,6.742611083984375,9.162610054016113,-3.1723172664642334,-0.5770025849342346
1772739594467624000,6.7526240234375,9.205705642700195,-3.2130186557769775,-0.6727706789970398
1772739594477684700,6.762684814453125,9.160215377807617,-3.1028854846954346,-0.6512228846549988
1772739594487669000,6.7726689453125,9.155426979064941,-3.184288263320923,-0.7182605266571045
1772739594498008000,6.783008056640625,9.150638580322266,-3.134010076522827,-0.7015010714530945
1772739594518817500,6.803817626953125,9.217676162719727,-3.3063924312591553,-0.7206547260284424
1772739594539445500,6.824445556640625,9.093177795410156,-3.3854012489318848,-0.706289529800415
1772739594548847600,6.83384765625,9.114726066589355,-3.3423056602478027,-0.7781155705451965
1772739594561382700,6.846382568359375,9.148244857788086,-3.270479440689087,-0.7541735172271729
1772739594568910800,6.853910888671875,9.114726066589355,-3.2345664501190186,-0.727837324142456
1772739594578946800,6.86394677734375,9.222464561462402,-3.2082302570343018,-0.667982280254364
1772739594588949200,6.87394921875,9.287108421325684,-3.2537200450897217,-0.6847416758537292
1772739594599311600,6.8843115234375,9.150638580322266,-3.1866824626922607,-0.768538773059845
1772739594608995800,6.893995849609375,9.21288776397705,-3.2417490482330322,-0.7541735172271729
1772739594619031000,6.904031005859375,9.160215377807617,-3.2848446369171143,-0.6775590777397156
1772739594629042000,6.9140419921875,9.26795482635498,-3.224989652633667,-0.6440402865409851
1772739594649090300,6.93409033203125,9.188945770263672,-3.224989652633667,-0.5602431893348694
1772739594659126300,6.944126220703125,9.153033256530762,-3.2585084438323975,-0.6440402865409851
1772739594669127200,6.954127197265625,9.17936897277832,-3.383007049560547,-0.629675030708313
1772739594679179800,6.9641796875,9.44991397857666,-3.4380736351013184,-0.6153098344802856
1772739594689160400,6.974160400390625,9.327810287475586,-3.529053211212158,-0.6607996821403503
1772739594700109800,6.98510986328125,9.299078941345215,-3.3207578659057617,-0.706289529800415
1772739594709202000,6.994201904296875,9.133879661560059,-3.399766445159912,-0.7589619159698486
1772739594720896800,7.005896728515625,9.01895809173584,-3.471592426300049,-0.8307880163192749
1772739594729250600,7.01425048828125,8.87051773071289,-3.6990416049957275,-0.8259995579719543
1772739594749293300,7.034293212890625,8.875306129455566,-3.490746021270752,-0.7015010714530945
1772739594759365000,7.044365234375,8.78432559967041,-3.4596214294433594,-0.811634361743927
1772739594769358800,7.05435888671875,8.853757858276367,-3.3255462646484375,-0.790086567401886
1772739594779393300,7.064393310546875,9.023746490478516,-3.177105665206909,-0.7493851184844971
1772739594789411000,7.0744111328125,9.184157371520996,-3.0597896575927734,-0.646434485912323
1772739594799782000,7.084781982421875,9.148244857788086,-3.0837318897247314,-0.7038952708244324
1772739594809459200,7.094459228515625,9.191340446472168,-3.160346269607544,-0.6775590777397156
1772739594819491600,7.10449169921875,9.215282440185547,-3.1004912853240967,-0.6512228846549988
1772739594829528000,7.114528076171875,9.155426979064941,-3.265691041946411,-0.7326257228851318
1772739594849570800,7.13457080078125,9.174580574035645,-3.4596214294433594,-0.667982280254364
1772739594860215300,7.14521533203125,9.141061782836914,-3.4093432426452637,-0.7015010714530945
1772739594869622800,7.154622802734375,9.191340446472168,-3.4093432426452637,-0.6799532771110535
1772739594882158300,7.167158447265625,9.05247688293457,-3.4141316413879395,-0.6655880808830261
1772739594889685000,7.17468505859375,9.095572471618652,-3.4308910369873047,-0.6488286852836609
1772739594900048400,7.18504833984375,9.107542991638184,-3.4572272300720215,-0.6584054827690125
1772739594909757200,7.194757080078125,9.097966194152832,-3.5027170181274414,-0.6703764796257019
1772739594919808500,7.20480859375,9.10993766784668,-3.5386300086975098,-0.7206547260284424
1772739594929797600,7.214797607421875,9.066842079162598,-3.6104562282562256,-0.6751648783683777
1772739594939829800,7.224829833984375,9.004592895507812,-3.6511576175689697,-0.6871358752250671
1772739594959898600,7.244898681640625,8.966285705566406,-3.7469255924224854,-0.6631938815116882
1772739594969883400,7.25488330078125,8.942343711853027,-3.754108190536499,-0.7565677165985107
1772739594979917800,7.264917724609375,9.023746490478516,-3.7900211811065674,-0.7805097699165344
1772739594989919700,7.274919677734375,8.942343711853027,-3.758896589279175,-0.6919242739677429
1772739595000299000,7.285299072265625,8.949525833129883,-3.737348794937134,-0.6751648783683777
1772739595009982000,7.29498193359375,9.057265281677246,-3.6846764087677,-0.7326257228851318
1772739595020631800,7.3056318359375,9.050082206726074,-3.665522813796997,-0.6871358752250671
1772739595030052900,7.315052978515625,9.097966194152832,-3.529053211212158,-0.7086837291717529
1772739595041709300,7.326709228515625,9.066842079162598,-3.6535518169403076,-0.608127236366272
1772739595060200200,7.3452001953125,8.995016098022461,-3.6750996112823486,-0.6536170840263367
1772739595070218800,7.35521875,8.990227699279785,-3.8067808151245117,-0.6703764796257019
1772739595080295700,7.365295654296875,9.026140213012695,-3.847482204437256,-0.7182605266571045
1772739595090680300,7.375680419921875,8.89445972442627,-3.955221176147461,-0.6943184733390808
1772739595100658200,7.385658203125,8.951920509338379,-4.144362926483154,-0.6703764796257019
1772739595110378800,7.395378662109375,8.908824920654297,-4.244919776916504,-0.6177040338516235
1772739595120457700,7.405457763671875,8.913613319396973,-4.230554580688477,-0.730231523513794
1772739595130478000,7.41547802734375,8.844181060791016,-4.331110954284668,-0.8475474119186401
1772739595140519400,7.42551953125,8.865729331970215,-4.220977783203125,-0.706289529800415
1772739595160629800,7.445629638671875,9.047688484191895,-3.44765043258667,-0.6799532771110535
1772739595170640000,7.455639892578125,9.002198219299316,-3.1028854846954346,-0.7996633648872375
1772739595181299500,7.466299560546875,9.141061782836914,-3.270479440689087,-0.6751648783683777
1772739595190719200,7.47571923828125,9.150638580322266,-3.2345664501190186,-0.6440402865409851
1772739595203624400,7.48862451171875,9.445125579833984,-3.026270866394043,-0.8810662031173706
1772739595211087000,7.496087158203125,9.375694274902344,-2.695871114730835,-0.7924807667732239
1772739595220891000,7.505890869140625,9.354146003723145,-2.784456491470337,-0.849941611289978
1772739595230936800,7.515936767578125,9.370905876159668,-2.896984100341797,-0.9026140570640564
1772739595241000400,7.52600048828125,9.208099365234375,-3.026270866394043,-0.8403648138046265
1772739595261037000,7.546037109375,9.081207275390625,-3.6320040225982666,-0.933738648891449
1772739595271058700,7.55605859375,9.117119789123535,-3.622427225112915,-0.7110779285430908
1772739595281117700,7.56611767578125,9.155426979064941,-3.3901896476745605,-0.6248866319656372
1772739595291112400,7.576112548828125,9.172186851501465,-3.141192674636841,-0.3208230137825012
1772739595301464000,7.586464111328125,9.27034854888916,-2.6886885166168213,-0.26575639843940735
1772739595311175000,7.5961748046875,9.339780807495117,-2.363077163696289,-0.18914192914962769
1772739595321237800,7.60623779296875,9.366117477416992,-2.293645143508911,-0.002394201699644327
1772739595331234800,7.61623486328125,9.327810287475586,-2.2816741466522217,-0.0071826050989329815
1772739595341882400,7.62688232421875,9.442731857299805,-2.473210334777832,0.05746084079146385
1772739595363005400,7.64800537109375,9.265560150146484,-2.894589900970459,-0.028730420395731926
1772739595371365600,7.65636572265625,9.174580574035645,-2.942473888397217,0.026336219161748886
1772739595381416400,7.66641650390625,9.062053680419922,-3.026270866394043,0.05027823522686958
1772739595391422500,7.67642236328125,9.0859956741333,-3.1316158771514893,-0.07900865375995636
1772739595401791700,7.686791748046875,9.047688484191895,-3.0526070594787598,-0.17717093229293823
1772739595411468800,7.69646875,9.129091262817383,-3.177105665206909,-0.1843535304069519
1772739595421507600,7.706507568359375,9.272743225097656,-3.313575267791748,-0.3519476354122162
1772739595431528400,7.716528564453125,9.469067573547363,-3.31118106842041,-0.3663128614425659
1772739595441586000,7.7265859375,9.442731857299805,-3.2106244564056396,-0.44771572947502136
1772739595451585800,7.736585693359375,9.220070838928223,-3.157952070236206,-0.5650315880775452
1772739595471646000,7.75664599609375,9.334992408752441,-2.9759926795959473,-0.6607996821403503
1772739595481703000,7.766702880859375,9.363722801208496,-2.8850131034851074,-0.7086837291717529
1772739595491692800,7.77669287109375,9.346963882446289,-2.7916390895843506,-0.6057330369949341
1772739595502643200,7.787643310546875,9.368511199951172,-2.913743495941162,-0.6272808313369751
1772739595512765400,7.797765380859375,9.32302188873291,-3.1723172664642334,-0.6272808313369751
1772739595525357300,7.810357421875,9.133879661560059,-3.3063924312591553,-0.689530074596405
1772739595532842500,7.817842529296875,9.210494041442871,-3.4572272300720215,-0.6967126727104187
1772739595542887200,7.82788720703125,9.160215377807617,-3.375824451446533,-0.6129156351089478
1772739595552902000,7.83790185546875,9.222464561462402,-3.2345664501190186,-0.5841852426528931
1772739595562964500,7.847964599609375,9.313444137573242,-3.1316158771514893,-0.5530605912208557
1772739595583003000,7.8680029296875,9.27034854888916,-2.80361008644104,-0.5746083855628967
1772739595593025300,7.878025390625,9.32541561126709,-2.7988216876983643,-0.3902548849582672
1772739595603406600,7.888406494140625,9.35893440246582,-2.7461493015289307,-0.40701428055763245
1772739595613067300,7.8980673828125,9.32302188873291,-2.9903578758239746,-0.2968810200691223
1772739595623122400,7.908122314453125,9.23682975769043,-2.964021682739258,-0.3998316824436188
1772739595633170000,7.918169921875,9.172186851501465,-3.141192674636841,-0.363918662071228
1772739595643227000,7.928226806640625,9.107542991638184,-3.2178070545196533,-0.35434186458587646
1772739595653213400,7.93821337890625,9.057265281677246,-3.3207578659057617,-0.272938996553421
1772739595663859000,7.94885888671875,9.090784072875977,-3.3231520652770996,-0.22505496442317963
1772739595684930000,7.969929931640625,9.121908187866211,-3.49314022064209,-0.33518823981285095
1772739595693335800,7.978335693359375,9.162610054016113,-3.2369606494903564,-0.4189853072166443
1772739595703683800,7.988683837890625,9.227252960205078,-3.1459810733795166,-0.42377370595932007
1772739595713398000,7.99839794921875,9.32541561126709,-2.9927520751953125,-0.35913026332855225
1772739595723461000,8.008461181640625,9.232041358947754,-3.00711727142334,-0.45489832758903503
1772739595733443600,8.018443603515625,9.210494041442871,-3.2106244564056396,-0.3998316824436188
1772739595743471600,8.0284716796875,9.227252960205078,-3.224989652633667,-0.47644615173339844
1772739595753500400,8.03850048828125,9.32541561126709,-3.1435868740081787,-0.3902548849582672
1772739595763549400,8.048549560546874,9.222464561462402,-3.246537446975708,-0.3878606855869293
1772739595773535700,8.05853564453125,9.265560150146484,-3.1292216777801514,-0.43335050344467163
1772739595793573400,8.078573486328125,9.148244857788086,-3.203441858291626,-0.4381389021873474
1772739595803945000,8.088945068359376,9.23443603515625,-3.1531636714935303,-0.45010992884635925
1772739595813605000,8.098605224609376,9.232041358947754,-3.117250680923462,-0.35913026332855225
1772739595824244700,8.10924462890625,9.272743225097656,-3.1244332790374756,-0.3208230137825012
1772739595833645800,8.118645751953125,9.253589630126953,-2.985569477081299,-0.3926490843296051
1772739595846174500,8.131174560546874,9.059659004211426,-2.6216509342193604,-0.6967126727104187
1772739595853701000,8.138701171875,9.220070838928223,-3.0119056701660156,-0.21308395266532898
1772739595863740200,8.148740234375,9.251194953918457,-3.177105665206909,-0.19393034279346466
1772739595873745200,8.1587451171875,9.150638580322266,-3.2968156337738037,-0.22026655077934265
1772739595893780500,8.178780517578126,9.045293807983398,-3.4332852363586426,-0.19871874153614044
1772739595904125700,8.189125732421875,9.059659004211426,-3.466804027557373,-0.10534487664699554
1772739595913837300,8.19883740234375,9.038111686706543,-3.4787750244140625,-0.24420857429504395
1772739595923894500,8.20889453125,9.040505409240723,-3.3279404640197754,-0.2059013396501541
1772739595933886500,8.218886474609375,9.193734169006348,-3.2369606494903564,-0.3016694188117981
1772739595943934700,8.228934814453124,9.23682975769043,-3.141192674636841,-0.36152446269989014
1772739595953950200,8.2389501953125,9.411606788635254,-3.0813376903533936,-0.3758896589279175
1772739595964013000,8.249012939453126,9.3828763961792,-3.246537446975708,-0.304063618183136
1772739595974005500,8.259005615234376,9.44991397857666,-3.3231520652770996,-0.48602294921875
1772739595984657400,8.269657470703125,9.758766174316406,-3.4332852363586426,-0.3687070608139038
1772739595994072300,8.279072265625,9.32302188873291,-3.485957622528076,-0.40462008118629456
1772739596006080300,8.291080322265625,9.050082206726074,-3.380612850189209,-0.5817909836769104
1772739596014151200,8.299151123046874,8.882488250732422,-3.4596214294433594,-0.6607996821403503
1772739596024187100,8.309187255859374,8.87291145324707,-3.5386300086975098,-0.4692635238170624
1772739596034223900,8.319223876953124,8.971074104309082,-3.533841609954834,-0.2753331959247589
1772739596044279300,8.329279296875,8.757989883422852,-3.3255462646484375,-0.19871874153614044
1772739596054267000,8.339266845703126,8.868123054504395,-3.069366693496704,-0.1843535304069519
1772739596064302600,8.349302490234376,9.102754592895508,-2.8993782997131348,-0.22266076505184174
1772739596074321200,8.359321044921876,9.124302864074707,-2.782062292098999,-0.2106897532939911
1772739596084379100,8.369379150390625,9.10993766784668,-2.7724854946136475,-0.3734954595565796
1772739596104730400,8.38973046875,9.306262016296387,-3.205836057662964,-0.3687070608139038
1772739596114438100,8.399438232421875,9.26795482635498,-3.337517261505127,-0.4429273009300232
1772739596124488700,8.40948876953125,9.222464561462402,-3.361459255218506,-0.4572925269603729
1772739596134474500,8.419474609375,9.059659004211426,-3.24414324760437,-0.4692635238170624
1772739596145115400,8.430115478515624,9.047688484191895,-3.428496837615967,-0.4572925269603729
1772739596154517800,8.439517822265625,9.062053680419922,-3.3710360527038574,-0.3447650372982025
1772739596167057200,8.45205712890625,9.107542991638184,-3.4787750244140625,-0.3734954595565796
1772739596174585000,8.459585205078126,9.107542991638184,-3.5458126068115234,-0.4189853072166443
1772739596184616700,8.46961669921875,8.978256225585938,-3.600879430770874,-0.586579442024231
1772739596204989700,8.48998974609375,9.217676162719727,-3.359065055847168,-0.43095630407333374
1772739596214670600,8.499670654296875,9.251194953918457,-3.2585084438323975,-0.4668693244457245
1772739596224705800,8.509705810546874,9.205705642700195,-3.270479440689087,-0.3998316824436188
1772739596234720000,8.519719970703125,9.071630477905273,-3.3207578659057617,-0.4572925269603729
1772739596244770000,8.52977001953125,9.124302864074707,-3.4548330307006836,-0.4596867263317108
1772739596254765000,8.53976513671875,9.222464561462402,-3.3231520652770996,-0.4644751250743866
1772739596264795400,8.54979541015625,9.21288776397705,-3.1938650608062744,-0.6009446382522583
1772739596274803500,8.559803466796875,9.248801231384277,-3.294421434402466,-0.5554547905921936
1772739596284858000,8.569858154296876,9.27034854888916,-3.2178070545196533,-0.5339069962501526
1772739596294845400,8.579845458984375,9.301473617553711,-3.1651346683502197,-0.5195417404174805
1772739596314896400,8.599896484375,9.313444137573242,-3.112462282180786,-0.6272808313369751
1772739596326541000,8.611541015625,9.294290542602539,-2.9712042808532715,-0.7158663272857666
1772739596334949400,8.619949462890625,9.222464561462402,-2.983175277709961,-0.5410895943641663
1772739596344982500,8.629982421875,9.222464561462402,-2.911349296569824,-0.6416460275650024
1772739596355000000,8.64,9.215282440185547,-2.9712042808532715,-0.7182605266571045
1772739596365051100,8.650051025390624,9.224859237670898,-3.1435868740081787,-0.811634361743927
1772739596375037400,8.660037353515625,9.114726066589355,-3.31118106842041,-0.8188169598579407
1772739596385069300,8.6700693359375,9.162610054016113,-3.4165258407592773,-0.8930372595787048
1772739596395117000,8.680116943359375,9.064447402954102,-3.4404678344726562,-0.849941611289978
1772739596415165400,8.70016552734375,9.042900085449219,-3.6535518169403076,-0.8690952062606812
1772739596425198000,8.710197998046874,9.040505409240723,-3.6152446269989014,-0.7493851184844971
1772739596435235600,8.720235595703125,9.102754592895508,-3.4189200401306152,-0.790086567401886
1772739596445299500,8.730299560546875,9.141061782836914,-3.315969467163086,-0.8188169598579407
1772739596455283000,8.740282958984375,9.141061782836914,-3.406949043273926,-0.7326257228851318
1772739596465923000,8.750923095703126,9.062053680419922,-3.6296098232269287,-0.8164227604866028
1772739596475332900,8.760332763671874,9.081207275390625,-3.56017804145813,-0.8188169598579407
1772739596487872500,8.77287255859375,9.071630477905273,-3.60566782951355,-0.8810662031173706
1772739596495398100,8.780398193359375,9.009381294250488,-3.5434184074401855,-0.8571242094039917
1772739596515470800,8.800470947265625,9.217676162719727,-3.4332852363586426,-0.608127236366272
1772739596525526000,8.810526123046875,9.196128845214844,-3.2321722507476807,-0.7110779285430908
1772739596535515000,8.820514892578124,9.124302864074707,-3.294421434402466,-0.6991068720817566
1772739596545597200,8.83059716796875,9.10993766784668,-3.44765043258667,-0.6512228846549988
1772739596555618800,8.840618896484376,8.99740982055664,-3.6152446269989014,-0.7134721279144287
1772739596565677300,8.85067724609375,8.892065048217773,-3.7014358043670654,-0.7924807667732239
1772739596575670500,8.86067041015625,8.971074104309082,-3.579331636428833,-0.9361328482627869
1772739596586117000,8.8711171875,8.700529098510742,-3.9432501792907715,-0.9433154463768005
1772739596595731200,8.880731201171875,8.880094528198242,-4.165910720825195,-0.9409212470054626
1772739596606096000,8.891095947265624,9.131484985351562,-3.823540210723877,-0.7158663272857666
1772739596626427400,8.911427490234376,8.619126319885254,-4.213795185089111,-1.0749965906143188
1772739596635850500,8.9208505859375,8.528146743774414,-4.443638324737549,-1.1516109704971313
1772739596647557600,8.9325576171875,8.508993148803711,-4.7405195236206055,-1.1348515748977661
1772739596655913500,8.94091357421875,8.406042098999023,-5.07570743560791,-0.9792284965515137
1772739596665947400,8.950947509765625,8.35097599029541,-5.070919036865234,-1.0055646896362305
1772739596675960600,8.960960693359375,8.437167167663574,-4.620809078216553,-1.1468225717544556
1772739596686009000,8.971009033203124,8.518569946289062,-4.292803764343262,-1.0989385843276978
1772739596695990000,8.980989990234375,8.695740699768066,-4.10366153717041,-1.1204863786697388
1772739596706339000,8.991339111328125,8.901641845703125,-4.065354347229004,-1.2018892765045166
1772739596726091500,9.011091552734374,8.688557624816895,-4.311957359313965,-1.0534487962722778
1772739596736089600,9.021089599609375,8.633491516113281,-4.618414878845215,-1.0031704902648926
1772739596746171400,9.03117138671875,8.35097599029541,-4.8602294921875,-1.1037269830703735
1772739596756236000,9.041236083984375,8.334216117858887,-5.099649429321289,-1.0247182846069336
1772739596766293500,9.05129345703125,8.281543731689453,-5.293580055236816,-1.0821791887283325
1772739596776277000,9.061277099609375,8.252813339233398,-5.140350818634033,-1.0654197931289673
1772739596786929000,9.071928955078125,8.396465301513672,-4.912901878356934,-1.0845733880996704
1772739596796324400,9.081324462890626,8.494627952575684,-4.501099109649658,-1.091755986213684
1772739596809190000,9.09418994140625,8.71489429473877,-4.3406877517700195,-1.1635819673538208
1772739596826424800,9.1114248046875,8.762778282165527,-4.144362926483154,-1.0079588890075684
1772739596836464000,9.121464111328125,8.729259490966797,-4.213795185089111,-0.9792284965515137
1772739596846521600,9.131521484375,8.707711219787598,-4.235342979431152,-0.9768342971801758
1772739596856514600,9.1415146484375,8.674192428588867,-4.364629745483398,-0.9409212470054626
1772739596866564900,9.15156494140625,8.56645393371582,-4.395754337310791,-1.0749965906143188
1772739596876591600,9.161591552734375,8.669404029846191,-4.551377296447754,-0.9911994934082031
1772739596886664200,9.171664306640626,8.628703117370605,-4.426878929138184,-0.9481038451194763
1772739596896668700,9.181668701171875,8.547300338745117,-4.431667327880859,-0.9888052940368652
1772739596907132400,9.19213232421875,8.592789649963379,-4.436455726623535,-1.0295066833496094
1772739596916747800,9.201747802734374,8.702922821044922,-4.369418144226074,-0.9911994934082031
1772739596926810600,9.211810546875,8.578424453735352,-4.326322555541992,-0.9409212470054626
1772739596936835300,9.22183544921875,8.5903959274292,-4.383783340454102,-0.9816226959228516
1772739596947507700,9.2325078125,8.631096839904785,-4.285621166229248,-1.0414776802062988
1772739596956917500,9.24191748046875,8.731653213500977,-4.180276393890381,-1.0319008827209473
1772739596968583700,9.253583740234374,8.669404029846191,-4.256890773773193,-0.9696516990661621
1772739596977013000,9.262012939453125,8.647856712341309,-4.206612586975098,-0.8882488012313843
1772739596987083800,9.272083740234375,8.592789649963379,-4.357447147369385,-0.950498104095459
1772739596997092900,9.2820927734375,8.564059257507324,-4.489128112792969,-0.8667010068893433
1772739597017193500,9.302193359375,8.592789649963379,-4.668693542480469,-0.8978256583213806
1772739597027294000,9.3122939453125,8.580819129943848,-4.685452938079834,-0.849941611289978
1772739597047398000,9.33239794921875,8.638279914855957,-4.259284973144531,-0.8547300100326538
1772739597057437000,9.34243701171875,8.674192428588867,-4.2544965744018555,-0.7948749661445618
1772739597067526000,9.35252587890625,8.686163902282715,-4.242525577545166,-0.950498104095459
1772739597077554400,9.362554443359375,8.822632789611816,-4.175487995147705,-0.8571242094039917
1772739597087629800,9.3726298828125,8.760383605957031,-4.094084739685059,-0.8212111592292786
1772739597097675000,9.382675048828125,8.827422142028809,-3.912125587463379,-0.8619126081466675
1772739597108688400,9.3936884765625,8.853757858276367,-3.883395195007324,-0.8164227604866028
1772739597117803300,9.40280322265625,8.813055992126465,-4.086902141571045,-0.7733271718025208
1772739597130367700,9.41536767578125,8.81784439086914,-4.201824188232422,-0.7948749661445618
1772739597137962500,9.42296240234375,8.765172004699707,-4.235342979431152,-0.7924807667732239
1772739597148043500,9.43304345703125,8.801085472106934,-4.240131378173828,-0.7637503147125244
1772739597158068500,9.443068359375,8.734047889709473,-4.331110954284668,-0.7805097699165344
1772739597168139500,9.453139404296875,8.769960403442383,-4.194641590118408,-0.7996633648872375
1772739597178183700,9.46318359375,8.760383605957031,-4.244919776916504,-0.7565677165985107
1772739597188269300,9.473269287109375,8.669404029846191,-4.307168960571289,-0.7637503147125244
1772739597198308900,9.483308837890625,8.604761123657227,-4.5609540939331055,-0.7972691655158997
1772739597208701700,9.49370166015625,8.645462036132812,-4.448426723480225,-0.811634361743927
1772739597218421500,9.50342138671875,8.674192428588867,-4.261679172515869,-0.7733271718025208
1772739597228520400,9.5135205078125,8.71728801727295,-4.331110954284668,-0.7613561153411865
1772739597248647000,9.53364697265625,8.56645393371582,-4.417302131652832,-0.6823474764823914
1772739597258656500,9.543656494140626,8.611943244934082,-4.5394062995910645,-0.6177040338516235
1772739597269322200,9.554322265625,8.643068313598633,-4.458003520965576,-0.6823474764823914
1772739597278711800,9.5637119140625,8.633491516113281,-4.4292731285095215,-0.6584054827690125
1772739597290382800,9.5753828125,8.676587104797363,-4.3861775398254395,-0.6631938815116882
1772739597298773500,9.5837734375,8.597578048706055,-4.412513732910156,-0.6272808313369751
1772739597309144300,9.594144287109375,8.597578048706055,-4.438849925994873,-0.6200982332229614
1772739597318834200,9.603834228515625,8.662221908569336,-4.4532151222229,-0.629675030708313
1772739597328873000,9.613873046875,8.652645111083984,-4.378994941711426,-0.6129156351089478
1772739597338880800,9.623880859375,8.614337921142578,-4.376600742340088,-0.6847416758537292
1772739597348951300,9.633951416015625,8.674192428588867,-4.378994941711426,-0.7350199222564697
1772739597358966300,9.64396630859375,8.69334602355957,-4.388571739196777,-0.6536170840263367
1772739597369013200,9.65401318359375,8.647856712341309,-4.309563159942627,-0.689530074596405
1772739597379034000,9.6640341796875,8.652645111083984,-4.381389141082764,-0.6727706789970398
1772739597389096400,9.674096435546875,8.611943244934082,-4.4292731285095215,-0.6057330369949341
1772739597399101000,9.684100830078124,8.62630844116211,-4.458003520965576,-0.6368576288223267
1772739597409462500,9.694462646484375,8.585607528686523,-4.4508209228515625,-0.5626373887062073
1772739597419159800,9.704159912109375,8.564059257507324,-4.405331134796143,-0.6584054827690125
1772739597429823700,9.71482373046875,8.583212852478027,-4.347870349884033,-0.689530074596405
1772739597439221200,9.72422119140625,8.578424453735352,-4.381389141082764,-0.7326257228851318
1772739597451733800,9.736733642578125,8.655038833618164,-4.460397720336914,-0.6440402865409851
1772739597469378800,9.75437890625,8.5903959274292,-4.484339714050293,-0.7637503147125244
1772739597479381800,9.7643818359375,8.647856712341309,-4.402936935424805,-0.6584054827690125
1772739597489425700,9.77442578125,8.611943244934082,-4.4532151222229,-0.6536170840263367
1772739597499438300,9.784438232421875,8.609549522399902,-4.4939165115356445,-0.6775590777397156
1772739597509827000,9.7948271484375,8.588001251220703,-4.477157115936279,-0.6057330369949341
1772739597521570300,9.8065703125,8.640673637390137,-4.637568473815918,-0.6392518281936646
1772739597531618000,9.8166181640625,8.552088737487793,-4.692635536193848,-0.6703764796257019
1772739597541637600,9.8266376953125,8.51138687133789,-4.661510944366455,-0.6943184733390808
1772739597551698700,9.83669873046875,8.47547435760498,-4.721365928649902,-0.6607996821403503
1772739597561685800,9.846685791015625,8.463502883911133,-4.671087741851807,-0.727837324142456
1772739597571717000,9.856717041015624,8.497021675109863,-4.642356872558594,-0.5746083855628967
1772739597581716200,9.86671630859375,8.523358345031738,-4.642356872558594,-0.6033388376235962
1772739597592376300,9.877376220703125,8.523358345031738,-4.711789131164551,-0.6368576288223267
1772739597601773600,9.886773681640625,8.47547435760498,-4.6734819412231445,-0.5770025849342346
1772739597613714400,9.89871435546875,8.465897560119629,-4.8267107009887695,-0.6368576288223267
1772739597621852400,9.906852294921874,8.439560890197754,-4.778826713562012,-0.5315127968788147
1772739597631906000,9.916906005859374,8.413225173950195,-4.817133903503418,-0.6607996821403503
1772739597641920500,9.92692041015625,8.465897560119629,-4.759673118591309,-0.6991068720817566
1772739597651955500,9.93695556640625,8.51138687133789,-4.611232280731201,-0.6200982332229614
1772739597661960400,9.94696044921875,8.633491516113281,-4.4939165115356445,-0.7781155705451965
1772739597672009200,9.95700927734375,8.5903959274292,-4.534617900848389,-0.5961562395095825
1772739597681996300,9.966996337890626,8.549694061279297,-4.460397720336914,-0.6368576288223267
1772739597692027000,9.97702685546875,8.580819129943848,-4.474762916564941,-0.6751648783683777
1772739597702042400,9.98704248046875,8.578424453735352,-4.4532151222229,-0.667982280254364
1772739597712402200,9.997402099609374,8.578424453735352,-4.424484729766846,-0.5650315880775452
1772739597722090500,10.007090576171874,8.59997272491455,-4.501099109649658,-0.6344634294509888
1772739597732127000,10.017126953125,8.528146743774414,-4.5609540939331055,-0.6488286852836609
1772739597742129200,10.027129150390625,8.554482460021973,-4.627991676330566,-0.6224924325942993
1772739597762182400,10.047182373046875,8.542511940002441,-4.627991676330566,-0.667982280254364
1772739597774699500,10.059699462890626,8.547300338745117,-4.572925090789795,-0.6751648783683777
1772739597792307500,10.077307373046875,8.597578048706055,-4.49870491027832,-0.5889736413955688
1772739597802302700,10.087302734375,8.528146743774414,-4.563348293304443,-0.6488286852836609
1772739597812653600,10.097653564453125,8.638279914855957,-4.592078685760498,-0.629675030708313
1772739597822353400,10.107353515625,8.53532886505127,-4.5825018882751465,-0.6943184733390808
1772739597832399400,10.1173994140625,8.573636054992676,-4.599261283874512,-0.7326257228851318
1772739597842394600,10.12739453125,8.513781547546387,-4.644751071929932,-0.6057330369949341
1772739597852426200,10.13742626953125,8.458714485168457,-4.685452938079834,-0.6727706789970398
1772739597862440700,10.147440673828125,8.494627952575684,-4.618414878845215,-0.7015010714530945
1772739597872490200,10.157490234375,8.489839553833008,-4.630385875701904,-0.7134721279144287
1772739597882476300,10.167476318359375,8.578424453735352,-4.6040496826171875,-0.6344634294509888
1772739597892515800,10.177515869140626,8.530540466308594,-4.568136692047119,-0.6392518281936646
1772739597902641200,10.18764111328125,8.492233276367188,-4.572925090789795,-0.5363011956214905
1772739597913492200,10.1984921875,8.497021675109863,-4.537012100219727,-0.49799394607543945
1772739597922583600,10.20758349609375,8.59997272491455,-4.458003520965576,-0.6392518281936646
1772739597934250000,10.21925,8.573636054992676,-4.49870491027832,-0.5770025849342346
1772739597952701200,10.237701171875,8.47547435760498,-4.616020679473877,-0.5937620401382446
1772739597972722400,10.257722412109375,8.523358345031738,-4.596867084503174,-0.6224924325942993
1772739597982726100,10.26772607421875,8.456320762634277,-4.6040496826171875,-0.5889736413955688
1772739597992787200,10.277787109375,8.528146743774414,-4.5394062995910645,-0.608127236366272
1772739598002783500,10.287783447265625,8.542511940002441,-4.592078685760498,-0.5650315880775452
1772739598013123300,10.298123291015624,8.44434928894043,-4.4532151222229,-0.5674257874488831
1772739598022817000,10.307817138671876,8.540117263793945,-4.5154643058776855,-0.6272808313369751
1772739598032869000,10.317869140625,8.604761123657227,-4.587290287017822,-0.5937620401382446
1772739598042880300,10.32788037109375,8.501810073852539,-4.637568473815918,-0.6177040338516235
1772739598052917200,10.337917236328124,8.520963668823242,-4.592078685760498,-0.6536170840263367
1772739598062933500,10.34793359375,8.449137687683105,-4.592078685760498,-0.6536170840263367
1772739598073599500,10.358599609375,8.547300338745117,-4.596867084503174,-0.6033388376235962
1772739598082999000,10.3679990234375,8.487444877624512,-4.532223701477051,-0.6440402865409851
1772739598095513300,10.380513427734375,8.573636054992676,-4.639962673187256,-0.6153098344802856
1772739598103086000,10.388086181640626,8.518569946289062,-4.666299343109131,-0.6224924325942993
1772739598113457700,10.398457763671875,8.523358345031738,-4.616020679473877,-0.7350199222564697
1772739598123150000,10.408150146484376,8.53532886505127,-4.51067590713501,-0.7038952708244324
1772739598133191200,10.418191162109375,8.561665534973145,-4.443638324737549,-0.730231523513794
1772739598143223000,10.42822314453125,8.437167167663574,-4.546588897705078,-0.6512228846549988
1772739598153266000,10.438265869140626,8.473079681396484,-4.639962673187256,-0.5985504388809204
1772739598163270000,10.448269775390624,8.473079681396484,-4.594472885131836,-0.608127236366272
1772739598173313800,10.458313720703124,8.470685958862305,-4.716577529907227,-0.6584054827690125
1772739598183337000,10.4683369140625,8.525752067565918,-4.72376012802124,-0.7254431247711182
1772739598193397000,10.47839697265625,8.544905662536621,-4.618414878845215,-0.6991068720817566
1772739598203387400,10.488387451171874,8.485051155090332,-4.599261283874512,-0.7972691655158997
1772739598213741000,10.498740966796875,8.556877136230469,-4.570530891418457,-0.7852981686592102
1772739598223440400,10.5084404296875,8.480262756347656,-4.522646903991699,-0.689530074596405
1772739598234106400,10.5191064453125,8.528146743774414,-4.5154643058776855,-0.8044517636299133
1772739598243506000,10.528505859375,8.547300338745117,-4.51067590713501,-0.7158663272857666
1772739598255137300,10.54013720703125,8.528146743774414,-4.575319290161133,-0.7230489253997803
1772739598263567400,10.5485673828125,8.51138687133789,-4.520252704620361,-0.6512228846549988
1772739598273624600,10.55862451171875,8.552088737487793,-4.54419469833374,-0.6320692300796509
1772739598283622700,10.56862255859375,8.552088737487793,-4.501099109649658,-0.768538773059845
1772739598293665500,10.57866552734375,8.451532363891602,-4.570530891418457,-0.6631938815116882
1772739598303676200,10.58867626953125,8.49941635131836,-4.639962673187256,-0.6967126727104187
1772739598314050800,10.59905078125,8.432378768920898,-4.659116744995117,-0.6512228846549988
1772739598323754800,10.608754638671876,8.492233276367188,-4.7189717292785645,-0.6631938815116882
1772739598333798700,10.618798583984375,8.403648376464844,-4.776432514190674,-0.689530074596405
1772739598343818500,10.628818603515626,8.458714485168457,-4.747702121734619,-0.6847416758537292
1772739598353872600,10.63887255859375,8.501810073852539,-4.726154327392578,-0.6536170840263367
1772739598363867100,10.6488671875,8.398859977722168,-4.73573112487793,-0.6607996821403503
1772739598373920500,10.65892041015625,8.398859977722168,-4.7189717292785645,-0.7541735172271729
1772739598383930600,10.6689306640625,8.425195693969727,-4.632780075073242,-0.6536170840263367
1772739598394599700,10.679599609375,8.439560890197754,-4.630385875701904,-0.7182605266571045
1772739598403990800,10.68899072265625,8.465897560119629,-4.675876140594482,-0.727837324142456
1772739598416844000,10.701843994140624,8.437167167663574,-4.570530891418457,-0.7015010714530945
1772739598434127400,10.71912744140625,8.401253700256348,-4.663905143737793,-0.6153098344802856
1772739598444142800,10.729142822265626,8.360552787780762,-4.72376012802124,-0.6368576288223267
1772739598454205400,10.739205322265626,8.315062522888184,-4.778826713562012,-0.6440402865409851
1772739598464217900,10.7492177734375,8.358158111572266,-4.876988887786865,-0.646434485912323
1772739598474315000,10.75931494140625,8.362946510314941,-4.898536682128906,-0.6751648783683777
1772739598494374700,10.779374755859376,8.324639320373535,-4.833893299102783,-0.7015010714530945
1772739598504374800,10.789374755859376,8.29590892791748,-4.879383087158203,-0.6200982332229614
1772739598514769700,10.799769775390626,8.372523307800293,-4.821922302246094,-0.7182605266571045
1772739598524476000,10.809475830078124,8.370129585266113,-4.865017890930176,-0.6775590777397156
1772739598534541000,10.819541015625,8.365341186523438,-4.879383087158203,-0.629675030708313
1772739598544562400,10.8295625,8.267178535461426,-4.970362663269043,-0.6655880808830261
1772739598555257900,10.8402578125,8.243236541748047,-5.094861030578613,-0.706289529800415
1772739598564651300,10.8496513671875,8.176198959350586,-5.161899089813232,-0.751779317855835
1772739598576354000,10.86135400390625,8.152256965637207,-5.236119270324707,-0.7493851184844971
1772739598584731000,10.86973095703125,8.188169479370117,-5.135562419891357,-0.8092401623725891
1772739598594808600,10.87980859375,8.209717750549316,-5.013458251953125,-0.7709329724311829
1772739598604812800,10.889812744140626,8.274360656738281,-4.934449672698975,-0.7757213711738586
1772739598615194600,10.900194580078125,8.329427719116211,-4.817133903503418,-0.7709329724311829
1772739598624882200,10.909882080078125,8.377311706542969,-4.728548526763916,-0.7350199222564697
1772739598634951200,10.919951171875,8.465897560119629,-4.752490520477295,-0.7709329724311829
1772739598644962600,10.929962646484375,8.456320762634277,-4.7620673179626465,-0.8092401623725891
1772739598655007700,10.9400078125,8.29590892791748,-4.7189717292785645,-0.7086837291717529
1772739598665023200,10.950023193359375,8.346187591552734,-4.903325080871582,-0.6631938815116882
1772739598675082200,10.960082275390626,8.279149055480957,-4.982333660125732,-0.7589619159698486
1772739598685076200,10.970076171875,8.276755332946777,-5.0469770431518555,-0.828393816947937
1772739598695115300,10.980115234375,8.209717750549316,-5.130774021148682,-0.8259995579719543
1772739598705127400,10.99012744140625,8.219294548034668,-5.099649429321289,-0.7565677165985107
1772739598716110000,11.001110107421875,8.20732307434082,-5.051765441894531,-0.7469909191131592
1772739598725186800,11.010186767578125,8.271966934204102,-5.011064052581787,-0.790086567401886
1772739598737693700,11.022693603515625,8.305485725402832,-4.9583916664123535,-0.7398083209991455
1772739598745240600,11.030240478515625,8.300697326660156,-4.865017890930176,-0.7206547260284424
1772739598755290000,11.0402900390625,8.305485725402832,-4.929661273956299,-0.7110779285430908
1772739598765284900,11.050284912109374,8.271966934204102,-4.716577529907227,-0.6153098344802856
1772739598775313200,11.060313232421874,8.4108304977417,-4.78122091293335,-0.6703764796257019
1772739598785325300,11.0703251953125,8.365341186523438,-4.90571928024292,-0.6823474764823914
1772739598795373000,11.080373046875,8.300697326660156,-4.898536682128906,-0.6440402865409851
1772739598805371000,11.090370849609375,8.365341186523438,-4.900930881500244,-0.751779317855835
1772739598815730000,11.10072998046875,8.317456245422363,-4.884171485900879,-0.7015010714530945
1772739598825419800,11.110419677734376,8.283937454223633,-4.884171485900879,-0.7589619159698486
1772739598835466200,11.12046630859375,8.360552787780762,-4.874594688415527,-0.7230489253997803
1772739598845476400,11.130476318359374,8.456320762634277,-4.795586109161377,-0.7086837291717529
1772739598855511600,11.140511474609376,8.520963668823242,-4.692635536193848,-0.6967126727104187
1772739598865521400,11.150521484375,8.520963668823242,-4.946420669555664,-0.646434485912323
1772739598876173800,11.161173828125,8.669404029846191,-4.9152960777282715,-0.6536170840263367
1772739598885558300,11.170558349609376,8.482656478881836,-4.774038314819336,-0.689530074596405
1772739598897189400,11.182189453125,8.401253700256348,-4.766855716705322,-0.8044517636299133
1772739598905630000,11.1906298828125,8.429984092712402,-4.489128112792969,-0.7781155705451965
1772739598915993300,11.200993408203125,8.40843677520752,-4.704606533050537,-0.608127236366272
1772739598925673000,11.2106728515625,8.355764389038086,-4.714183330535889,-0.6584054827690125
1772739598935703600,11.22070361328125,8.377311706542969,-4.54419469833374,-0.7805097699165344
1772739598945703700,11.23070361328125,8.307879447937012,-4.548983097076416,-0.7206547260284424
1772739598955763500,11.240763427734375,8.20492935180664,-4.501099109649658,-0.8236053586006165
1772739598965748200,11.250748291015626,8.274360656738281,-4.608838081359863,-0.9002198576927185
1772739598975774000,11.26077392578125,8.355764389038086,-4.72376012802124,-0.790086567401886
1772739598985767000,11.270766845703125,8.346187591552734,-4.7620673179626465,-0.8331822156906128
1772739598995805200,11.28080517578125,8.324639320373535,-4.960785865783691,-0.8547300100326538
1772739599005795300,11.29079541015625,8.360552787780762,-4.9368438720703125,-0.7924807667732239
1772739599016133600,11.301133544921875,8.370129585266113,-4.819528102874756,-0.7469909191131592
1772739599025838800,11.3108388671875,8.406042098999023,-4.742913722991943,-0.768538773059845
1772739599036533200,11.321533203125,8.456320762634277,-4.651933670043945,-0.6655880808830261
1772739599046345200,11.33134521484375,8.492233276367188,-4.599261283874512,-0.6919242739677429
1772739599058509800,11.343509765625,8.516175270080566,-4.685452938079834,-0.5985504388809204
1772739599066049000,11.351049072265624,8.453926086425781,-4.81473970413208,-0.6991068720817566
1772739599076101400,11.361101318359376,8.360552787780762,-4.7405195236206055,-0.6033388376235962
1772739599086098400,11.371098388671875,8.398859977722168,-4.831499099731445,-0.7541735172271729
1772739599096180500,11.381180419921876,8.489839553833008,-4.788403511047363,-0.7613561153411865
1772739599106201900,11.391201904296874,8.413225173950195,-4.704606533050537,-0.8068459630012512
1772739599116607000,11.40160693359375,8.44434928894043,-4.656722068786621,-0.7565677165985107
1772739599136375600,11.42137548828125,8.394071578979492,-4.692635536193848,-0.7206547260284424
1772739599146387500,11.431387451171876,8.415618896484375,-4.613626480102539,-0.6943184733390808
1772739599156483300,11.4414833984375,8.401253700256348,-4.697423934936523,-0.7230489253997803
1772739599166476300,11.451476318359376,8.348581314086914,-4.668693542480469,-0.6368576288223267
1772739599176557000,11.46155712890625,8.434772491455078,-4.728548526763916,-0.6177040338516235
1772739599186573800,11.47157373046875,8.343792915344238,-4.742913722991943,-0.667982280254364
1772739599197271000,11.48227099609375,8.336610794067383,-4.800374507904053,-0.706289529800415
1772739599206668300,11.491668212890625,8.327033042907715,-4.857835292816162,-0.6703764796257019
1772739599218690300,11.503690185546875,8.334216117858887,-4.812345504760742,-0.6248866319656372
1772739599236878300,11.52187841796875,8.267178535461426,-4.817133903503418,-0.6584054827690125
1772739599246919700,11.531919677734376,8.422801971435547,-4.869806289672852,-0.5889736413955688
1772739599257103600,11.542103515625,8.31985092163086,-4.999093055725098,-0.6105214357376099
1772739599266992000,11.5519921875,8.336610794067383,-5.037400245666504,-0.6919242739677429
1772739599277047300,11.56204736328125,8.346187591552734,-5.011064052581787,-0.689530074596405
1772739599287086300,11.57208642578125,8.216899871826172,-4.999093055725098,-0.6200982332229614
1772739599297152800,11.58215283203125,8.322244644165039,-4.900930881500244,-0.7374141216278076
1772739599307161300,11.592161376953126,8.35336971282959,-4.896142482757568,-0.706289529800415
1772739599317527600,11.602527587890625,8.372523307800293,-4.845864295959473,-0.7110779285430908
1772739599337344000,11.622343994140625,8.398859977722168,-4.7836151123046875,-0.6272808313369751
1772739599347365400,11.632365478515625,8.367734909057617,-4.807557106018066,-0.6105214357376099
1772739599358012400,11.643012451171876,8.317456245422363,-4.8722004890441895,-0.5985504388809204
1772739599367415300,11.652415283203124,8.327033042907715,-4.924872875213623,-0.6416460275650024
1772739599379974400,11.664974365234375,8.312667846679688,-4.934449672698975,-0.5985504388809204
1772739599387506700,11.672506591796875,8.276755332946777,-4.876988887786865,-0.5554547905921936
1772739599397533000,11.682532958984375,8.38449478149414,-4.908113479614258,-0.6991068720817566
1772739599407530000,11.692530029296876,8.324639320373535,-4.8937482833862305,-0.608127236366272
1772739599417901000,11.702901123046875,8.310274124145508,-4.955997467041016,-0.5985504388809204
1772739599427574800,11.71257470703125,8.22887134552002,-5.051765441894531,-0.6703764796257019
1772739599437602000,11.72260205078125,8.2312650680542,-5.008669853210449,-0.6560112833976746
1772739599447602200,11.732602294921875,8.26478385925293,-5.049371242523193,-0.6631938815116882
1772739599457661000,11.742660888671875,8.221688270568848,-5.097255229949951,-0.646434485912323
1772739599467679000,11.752678955078125,8.24084186553955,-5.1595048904418945,-0.6775590777397156
1772739599477737000,11.762737060546876,8.152256965637207,-5.178658485412598,-0.7158663272857666
1772739599487762000,11.772761962890625,8.224082946777344,-5.214571475982666,-0.6847416758537292
1772739599497843200,11.78284326171875,8.202534675598145,-5.1331682205200195,-0.646434485912323
1772739599507853000,11.79285302734375,8.22887134552002,-5.037400245666504,-0.6919242739677429
1772739599518829300,11.803829345703125,8.248024940490723,-5.056553840637207,-0.7541735172271729
1772739599527970600,11.812970458984376,8.303091049194336,-5.020640850067139,-0.7661445140838623
1772739599548052500,11.833052490234374,8.224082946777344,-5.054159641265869,-0.7757213711738586
1772739599558105000,11.84310498046875,8.346187591552734,-4.9152960777282715,-0.7996633648872375
1772739599568129300,11.85312939453125,8.346187591552734,-4.972756862640381,-0.7613561153411865
1772739599578205000,11.863204833984375,8.291120529174805,-4.955997467041016,-0.727837324142456
1772739599588207900,11.873207763671875,8.269572257995605,-4.932055473327637,-0.7637503147125244
1772739599598255400,11.88325537109375,8.322244644165039,-5.008669853210449,-0.7254431247711182
1772739599608289800,11.893289794921875,8.147468566894531,-4.965574264526367,-0.7589619159698486
1772739599618669300,11.90366943359375,8.31985092163086,-5.051765441894531,-0.7326257228851318
1772739599628356600,11.913356689453124,8.209717750549316,-4.941632270812988,-0.6727706789970398
1772739599638410000,11.923409912109374,8.29590892791748,-4.967968463897705,-0.7086837291717529
1772739599658539300,11.943539306640625,8.329427719116211,-4.989516258239746,-0.7134721279144287
1772739599668548000,11.953548095703125,8.322244644165039,-5.035006046295166,-0.7445967197418213
1772739599679208400,11.96420849609375,8.324639320373535,-5.128379821777344,-0.6655880808830261
1772739599688631000,11.973631103515626,8.145073890686035,-4.977545261383057,-0.6823474764823914
1772739599701182500,11.986182373046875,8.185775756835938,-5.0876784324646,-0.6799532771110535
1772739599708742000,11.993741943359375,8.259995460510254,-5.0685248374938965,-0.730231523513794
1772739599719107600,12.004107666015624,8.257601737976074,-5.070919036865234,-0.7589619159698486
1772739599728831200,12.013831298828125,8.202534675598145,-5.013458251953125,-0.7661445140838623
1772739599738896600,12.023896728515625,8.293514251708984,-5.015852451324463,-0.7805097699165344
1772739599748904200,12.033904296875,8.281543731689453,-4.98472785949707,-0.7589619159698486
1772739599758957300,12.043957275390625,8.310274124145508,-5.032611846923828,-0.8403648138046265
1772739599768992800,12.05399267578125,8.255207061767578,-5.04218864440918,-0.7972691655158997
1772739599779060500,12.064060546875,8.209717750549316,-5.051765441894531,-0.7829039692878723
1772739599789067000,12.07406689453125,8.219294548034668,-4.99669885635376,-0.8020575642585754
1772739599799115300,12.084115234375,8.293514251708984,-4.963180065155029,-0.7230489253997803
1772739599809132300,12.09413232421875,8.324639320373535,-5.0014872550964355,-0.7541735172271729
1772739599819515100,12.10451513671875,8.334216117858887,-4.98472785949707,-0.7086837291717529
1772739599829208800,12.114208740234375,8.305485725402832,-4.920084476470947,-0.7565677165985107
1772739599839870700,12.12487060546875,8.269572257995605,-4.829104900360107,-0.7254431247711182
1772739599869392000,12.154391845703126,8.245630264282227,-4.970362663269043,-0.7015010714530945
1772739599879447800,12.16444775390625,8.192957878112793,-5.106832027435303,-0.6703764796257019
1772739599889467600,12.174467529296875,8.243236541748047,-5.049371242523193,-0.6799532771110535
1772739599899535000,12.18453515625,8.336610794067383,-4.800374507904053,-0.6272808313369751
1772739599909536300,12.194536376953126,8.26478385925293,-5.032611846923828,-0.811634361743927
1772739599919892500,12.204892578125,8.367734909057617,-4.944026470184326,-0.7230489253997803
1772739599929602300,12.214602294921875,8.255207061767578,-5.008669853210449,-0.7374141216278076
1772739599939661600,12.22466162109375,8.243236541748047,-5.03021764755249,-0.7350199222564697
1772739599959708400,12.24470849609375,8.195352554321289,-5.202600479125977,-0.7134721279144287
1772739599969751000,12.2547509765625,8.214506149291992,-5.066130638122559,-0.751779317855835
1772739599979817700,12.264817626953125,8.212111473083496,-5.04218864440918,-0.7350199222564697
1772739599989817900,12.27481787109375,8.224082946777344,-5.03021764755249,-0.7709329724311829
1772739600000471000,12.285470947265624,8.374917984008789,-4.975151062011719,-0.8092401623725891
1772739600009891000,12.29489111328125,8.35336971282959,-4.76924991607666,-0.7733271718025208
1772739600022785500,12.30778564453125,8.398859977722168,-4.6950297355651855,-0.8044517636299133
1772739600030248200,12.315248291015624,8.348581314086914,-4.656722068786621,-0.811634361743927
1772739600040051700,12.3250517578125,8.456320762634277,-4.680664539337158,-0.6967126727104187
1772739600050094000,12.335093994140625,8.418013572692871,-4.587290287017822,-0.6775590777397156
1772739600060189400,12.345189453125,8.497021675109863,-4.5154643058776855,-0.6057330369949341
1772739600070177800,12.355177734375,8.372523307800293,-4.6950297355651855,-0.6703764796257019
1772739600080243200,12.3652431640625,8.322244644165039,-5.080495834350586,-0.6775590777397156
1772739600090260200,12.37526025390625,8.152256965637207,-5.389348030090332,-0.6105214357376099
1772739600100356400,12.3853564453125,7.99184513092041,-5.693411827087402,-0.5171475410461426
1772739600110353400,12.395353515625,7.850587368011475,-5.928043365478516,-0.5530605912208557
1772739600120735200,12.4057353515625,7.759607791900635,-6.054935932159424,-0.608127236366272
1772739600130444000,12.415444091796875,7.967903137207031,-6.026205539703369,-0.6129156351089478
1772739600140548000,12.425548095703125,8.224082946777344,-5.74129581451416,-0.5339069962501526
1772739600150542800,12.43554296875,8.315062522888184,-5.461174011230469,-0.5985504388809204
1772739600161223400,12.446223388671875,8.315062522888184,-5.935225963592529,-0.6871358752250671
1772739600182328000,12.467328125,8.022970199584961,-7.015010833740234,-0.4836287498474121
1772739600190743000,12.475742919921874,8.058882713317871,-7.429207801818848,-0.49799394607543945
1772739600200810500,12.485810546875,9.373299598693848,-7.970297336578369,0.4668693244457245
1772739600210856400,12.4958564453125,10.936713218688965,-9.66539192199707,1.843535304069519
1772739600221244400,12.506244384765624,11.08754825592041,-12.1194486618042,2.070984363555908
1772739600230951700,12.51595166015625,10.362105369567871,-15.128960609436035,2.049436569213867
1772739600241020400,12.5260205078125,8.324639320373535,-16.496049880981445,2.4444799423217773
1772739600251071000,12.536071044921876,7.908048152923584,-16.673221588134766,0.009576806798577309
1772739600261153300,12.5461533203125,7.6782050132751465,-15.152902603149414,-2.9759926795959473
1772739600281202000,12.566201904296875,7.436390399932861,-14.39872932434082,-5.013458251953125
1772739600291200000,12.576199951171875,6.756437301635742,-14.590265274047852,-3.794809579849243
1772739600301260300,12.58626025390625,5.825092792510986,-14.197615623474121,-2.920926094055176
1772739600311239400,12.596239501953125,5.097255229949951,-13.431471824645996,-2.808398485183716
1772739600322181000,12.60718115234375,4.486733913421631,-12.45703125,-3.1196448802948
1772739600331280600,12.61628076171875,4.474762916564941,-12.023680686950684,-3.2537200450897217
1772739600343797500,12.628797607421875,4.134786128997803,-10.745177268981934,-2.964021682739258
1772739600351327500,12.636327392578124,3.6607344150543213,-9.593565940856934,-2.8826189041137695
1772739600361352700,12.646352783203126,3.1699230670928955,-8.633491516113281,-2.765302896499634
1772739600371361000,12.656361083984375,2.6862943172454834,-7.869740962982178,-2.734178304672241
1772739600391397600,12.676397705078125,2.030282974243164,-6.761225700378418,-2.6240451335906982
1772739600401432600,12.6864326171875,1.5921441316604614,-5.75326681137085,-2.9735984802246094
1772739600411454000,12.696453857421876,1.6424223184585571,-5.406107425689697,-3.1076738834381104
1772739600421812500,12.7068125,1.8770540952682495,-4.910507678985596,-3.332728862762451
1772739600431488800,12.71648876953125,1.8579005002975464,-4.517858505249023,-3.335123062133789
1772739600441514000,12.726513916015625,1.7142484188079834,-4.225766181945801,-3.3949780464172363
1772739600451541200,12.736541259765625,1.9991583824157715,-3.936067581176758,-3.227383852005005
1772739600461582600,12.74658251953125,2.8562827110290527,-3.7636849880218506,-2.980781078338623
1772739600471559000,12.756558837890625,3.8786067962646484,-3.5936968326568604,-2.5905263423919678
1772739600482192400,12.7671923828125,4.774038314819336,-3.1028854846954346,-2.279279947280884
1772739600491603000,12.77660302734375,5.032611846923828,-2.250549554824829,-2.250549554824829
1772739600503289300,12.788289306640625,4.967968463897705,-1.601720929145813,-2.360682964324951
1772739600511641000,12.79664111328125,5.449203014373779,-1.3742717504501343,-2.4660277366638184
1772739600521979400,12.8069794921875,5.736507415771484,-0.9672574996948242,-2.52109432220459
1772739600532732700,12.817732666015624,6.593631267547607,-0.5482721924781799,-2.5258827209472656
1772739600542800400,12.82780029296875,7.163451671600342,-0.20350714027881622,-2.2002713680267334
1772739600552770600,12.8377705078125,7.333439826965332,0.090979665517807,-1.7956513166427612
1772739600562788400,12.847788330078124,7.716512203216553,-0.019153613597154617,-1.4867992401123047
1772739600572803000,12.857802978515625,7.915230751037598,-0.1388636976480484,-1.2641384601593018
1772739600582840000,12.867840087890626,8.044517517089844,0.14604631066322327,-0.9193734526634216
1772739600592820700,12.87782080078125,8.219294548034668,0.35434186458587646,-0.23942017555236816
1772739600602836700,12.887836669921874,8.497021675109863,0.35434186458587646,0.5578489899635315
1772739600612839700,12.897839599609375,8.643068313598633,-0.2968810200691223,1.2832920551300049
1772739600623177700,12.908177734375,8.803479194641113,-1.6112977266311646,1.9943699836730957
1772739600632844500,12.917844482421875,9.251194953918457,-3.203441858291626,2.3511061668395996
1772739600643457000,12.92845703125,9.761159896850586,-5.25527286529541,2.513911724090576
1772739600652858600,12.937858642578124,10.029311180114746,-5.760449409484863,2.319981336593628
1772739600665375700,12.950375732421875,9.880870819091797,-6.052541732788086,2.0638017654418945
1772739600672883200,12.95788330078125,9.193734169006348,-6.246472358703613,1.9752163887023926
1772739600682893800,12.967893798828126,8.655038833618164,-7.359776020050049,2.078166961669922
1772739600692930800,12.977930908203126,8.480262756347656,-8.793902397155762,2.3247697353363037
1772739600703012600,12.9880126953125,8.233659744262695,-9.593565940856934,2.75812029838562
1772739600712983800,12.99798388671875,8.04691219329834,-9.35893440246582,3.1028854846954346
1772739600723319300,13.0083193359375,8.152256965637207,-8.597578048706055,3.406949043273926
1772739600733030400,13.018030517578126,8.274360656738281,-7.666234016418457,3.6774938106536865
1772739600743074000,13.028073974609375,8.485051155090332,-7.280767440795898,3.56017804145813
1772739600753048000,13.038048095703125,8.592789649963379,-7.204153060913086,3.335123062133789
1772739600763067600,13.048067626953125,8.29830265045166,-7.572859764099121,2.918531894683838
1772739600773063000,13.05806298828125,8.166622161865234,-8.35097599029541,2.6455929279327393
1772739600783107300,13.068107421875,7.8529815673828125,-8.884882926940918,2.494758129119873
1772739600793095700,13.078095703125,7.735665798187256,-8.920795440673828,2.43011474609375
1772739600803726600,13.0887265625,7.539340972900391,-8.700529098510742,2.5450363159179688
1772739600813124900,13.098124755859375,7.620744228363037,-8.362946510314941,2.518700122833252
1772739600825063700,13.110063720703126,7.673416614532471,-8.209717750549316,2.255337953567505
1772739600833189000,13.118189208984376,8.365341186523438,-8.719682693481445,1.6543933153152466
1772739600843218000,13.128218017578124,8.990227699279785,-9.557653427124023,0.8667010068893433
1772739600853246500,13.13824658203125,9.579200744628906,-10.60391902923584,0.040701430290937424
1772739600863287300,13.148287353515625,9.773131370544434,-11.286267280578613,-0.3926490843296051
1772739600873261800,13.15826171875,9.481039047241211,-11.614272117614746,-0.5746083855628967
1772739600883294700,13.168294677734375,8.669404029846191,-11.408370971679688,-0.6655880808830261
1772739600893310000,13.17831005859375,7.666234016418457,-10.979808807373047,-0.5291185975074768
1772739600903352600,13.1883525390625,6.390124320983887,-9.794678688049316,-0.4596867263317108
1772739600913333200,13.198333251953125,5.999869346618652,-9.349357604980469,-0.29209262132644653
1772739600923667700,13.208667724609375,5.700594425201416,-9.100360870361328,-0.2585737705230713
1772739600933375500,13.21837548828125,5.638344764709473,-9.074024200439453,-0.38307225704193115
1772739600943418600,13.228418701171876,5.547365188598633,-8.798690795898438,-0.6033388376235962
1772739600953390300,13.238390380859375,4.865017890930176,-8.413225173950195,-1.094150185585022
1772739600964019700,13.249019775390625,4.223371982574463,-8.159439086914062,-1.5729905366897583
1772739600973408000,13.258407958984375,3.8163576126098633,-8.334216117858887,-1.9704279899597168
1772739600985918200,13.270918212890624,3.823540210723877,-8.547300338745117,-2.360682964324951
1772739600993440300,13.278440185546875,4.091690540313721,-8.44195556640625,-2.365471363067627
1772739601003461000,13.288461181640624,4.630385875701904,-7.99184513092041,-2.387019157409668
1772739601013460500,13.29846044921875,5.12119722366333,-7.383718013763428,-2.1954829692840576
1772739601023823600,13.30882373046875,5.449203014373779,-6.615179061889648,-2.03507137298584
1772739601033506300,13.31850634765625,5.774814605712891,-6.033388137817383,-1.7501614093780518
1772739601043537400,13.328537353515625,5.954379558563232,-5.805939197540283,-1.3958195447921753
1772739601053549300,13.33854931640625,5.971138954162598,-5.779603004455566,-1.1061211824417114
1772739601063597600,13.34859765625,6.081272125244141,-5.942408561706543,-0.8164227604866028
1772739601073592600,13.358592529296875,6.078877925872803,-6.184223175048828,-0.6584054827690125
1772739601083623000,13.368622802734375,6.13633918762207,-6.452373504638672,-0.31364041566848755
1772739601093624000,13.3786240234375,6.2392897605896,-6.414066314697266,-0.09576806426048279
1772739601103672800,13.3886728515625,6.370970726013184,-6.301538944244385,0.0694318488240242
1772739601113646600,13.398646484375,6.677428722381592,-6.157886981964111,0.2346317619085312
1772739601124605400,13.40960546875,6.852205276489258,-5.928043365478516,0.37828385829925537
1772739601133695000,13.418695068359375,7.0557122230529785,-5.7125654220581055,0.5051765441894531
1772739601145373200,13.430373291015625,7.115567684173584,-5.674258232116699,0.4165911078453064
1772739601153726700,13.438726806640625,7.218518257141113,-5.9088897705078125,0.3016694188117981
1772739601163729400,13.4487294921875,7.759607791900635,-6.36378812789917,-0.40222588181495667
1772739601173725700,13.4587255859375,8.085219383239746,-6.358999729156494,-0.6847416758537292
1772739601183760600,13.4687607421875,8.054094314575195,-6.157886981964111,-0.7589619159698486
1772739601193730600,13.47873046875,7.975085735321045,-6.184223175048828,-0.7709329724311829
1772739601203749000,13.4887490234375,7.790732383728027,-6.210559368133545,-0.8786720037460327
1772739601213748000,13.498748046875,7.445967197418213,-6.31829833984375,-0.9840168952941895
1772739601224108500,13.509108642578125,7.194576263427734,-6.315904140472412,-1.072602391242981
1772739601233774300,13.5187744140625,7.029376029968262,-6.380547523498535,-1.115697979927063
1772739601253823000,13.538822998046875,6.98628044128418,-6.196194171905518,-0.6631938815116882
1772739601263863300,13.54886328125,7.668628215789795,-6.299144744873047,-0.43095630407333374
1772739601273848800,13.558848876953125,8.310274124145508,-6.354211330413818,-0.44532153010368347
1772739601284495000,13.5694951171875,8.544905662536621,-5.722142219543457,-0.5027823448181152
1772739601293900000,13.578900146484376,8.305485725402832,-5.2049946784973145,-0.507570743560791
1772739601306422300,13.59142236328125,8.530540466308594,-5.020640850067139,-0.4357447028160095
1772739601313961500,13.59896142578125,8.453926086425781,-5.063736438751221,-0.31842881441116333
1772739601324316400,13.60931640625,8.212111473083496,-5.224148273468018,-0.21308395266532898
1772739601334026800,13.61902685546875,8.061277389526367,-5.4659624099731445,-0.35673606395721436
1772739601354076400,13.639076416015625,7.886500358581543,-5.940014362335205,-0.2944868206977844
1772739601364115700,13.64911572265625,7.960720539093018,-5.944802761077881,-0.30885201692581177
1772739601374137000,13.65913720703125,7.920019149780273,-5.743690013885498,-0.2346317619085312
1772739601384200400,13.669200439453125,7.9631147384643555,-5.647922039031982,-0.16759411990642548
1772739601394195500,13.679195556640625,8.027758598327637,-5.604825973510742,-0.11252748221158981
1772739601404231000,13.68923095703125,7.996633529663086,-5.631162166595459,-0.0933738648891449
1772739601414249500,13.69924951171875,8.034940719604492,-5.633556365966797,-0.3447650372982025
1772739601424616400,13.709616455078125,7.812280178070068,-5.600037574768066,-0.6799532771110535
1772739601434303000,13.719302978515625,7.709329605102539,-5.70777702331543,-0.629675030708313
1772739601444950500,13.729950439453125,7.781155586242676,-5.75326681137085,-0.7254431247711182
1772739601466038000,13.7510380859375,7.975085735321045,-5.473145008087158,-0.5363011956214905
1772739601474453800,13.759453857421875,7.843404769897461,-5.588066577911377,-0.4572925269603729
1772739601484500700,13.769500732421875,8.078036308288574,-5.856217384338379,-0.4884171485900879
1772739601494523100,13.779523193359376,8.334216117858887,-6.208165168762207,-0.42377370595932007
1772739601504582000,13.789581787109375,8.884882926940918,-6.703764915466309,-0.7206547260284424
1772739601514584600,13.79958447265625,9.411606788635254,-6.931213855743408,-0.9457096457481384
1772739601524940000,13.80993994140625,9.263166427612305,-6.557718276977539,-1.0342950820922852
1772739601544764200,13.82976416015625,7.486668586730957,-5.147533416748047,-1.2234370708465576
1772739601554862000,13.839862060546874,7.955932140350342,-4.05817174911499,-1.278503656387329
1772739601564824600,13.849824462890625,9.01895809173584,-4.474762916564941,-0.5626373887062073
1772739601584918300,13.869918212890624,8.066065788269043,-2.537853717803955,0.21547815203666687
1772739601605609500,13.890609375,7.671022415161133,-3.49314022064209,0.6967126727104187
1772739601627928800,13.9129287109375,7.589619159698486,-4.151545524597168,-0.29209262132644653
1772739601635493600,13.92049365234375,7.536946773529053,-3.823540210723877,-0.6440402865409851
1772739601645197000,13.930197021484375,7.247248649597168,-3.404554843902588,-0.646434485912323
1772739601655263200,13.94026318359375,7.5968017578125,-4.343081951141357,-0.47884035110473633
1772739601665339600,13.950339599609375,8.329427719116211,-6.603208065032959,-0.06464344263076782
1772739601675348000,13.960347900390625,8.5903959274292,-6.766014099121094,-0.0694318488240242
1772739601685401600,13.970401611328125,8.731653213500977,-6.270414352416992,-0.1604115068912506
1772739601695435000,13.98043505859375,8.978256225585938,-6.121973514556885,-0.043095629662275314
1772739601705509600,13.990509521484375,9.090784072875977,-6.172252178192139,0.0071826050989329815
1772739601715512800,14.000512939453126,9.05487060546875,-6.5050458908081055,-0.19393034279346466
1772739601725874400,14.01087451171875,8.465897560119629,-6.950367450714111,-0.6153098344802856
1772739601735593500,14.020593505859376,7.675810813903809,-7.187393665313721,-0.8523358106613159
1772739601745662200,14.030662109375,6.777985095977783,-7.117961883544922,-0.9911994934082031
1772739601755678500,14.040678466796875,6.45476770401001,-6.926425457000732,-1.0271124839782715
1772739601766348000,14.05134814453125,6.234501361846924,-6.629544734954834,-1.0031704902648926
1772739601775760000,14.060759765625,6.212953567504883,-6.428431510925293,-0.9481038451194763
1772739601787473000,14.072472900390625,6.258443355560303,-6.734889507293701,-1.05105459690094
1772739601796080000,14.081080078125,6.320692539215088,-6.926425457000732,-1.0055646896362305
1772739601805880600,14.090880615234376,6.512228488922119,-6.995857238769531,-0.950498104095459
1772739601815909600,14.10090966796875,6.605602264404297,-7.275979042053223,-0.8307880163192749
1772739601826302200,14.11130224609375,6.603208065032959,-7.400477409362793,-0.7422025203704834
1772739601835976200,14.12097607421875,6.536170482635498,-7.51779317855835,-0.7158663272857666
1772739601846048000,14.131048095703125,6.485892295837402,-7.848193168640137,-0.8236053586006165
1772739601856069600,14.141069580078126,6.689399719238281,-7.675810813903809,-0.9026140570640564
1772739601866133000,14.151133056640624,6.897695064544678,-7.433996200561523,-0.9193734526634216
1772739601886300200,14.171300048828124,6.71334171295166,-7.666234016418457,-0.8882488012313843
1772739601896195300,14.1811953125,6.617573261260986,-7.4316020011901855,-1.0438719987869263
1772739601906227700,14.191227783203125,6.552929878234863,-7.089231014251709,-1.0534487962722778
1772739601916228900,14.201228759765625,6.94079065322876,-6.212953567504883,-1.2066776752471924
1772739601927199500,14.212199462890625,6.976703643798828,-6.251260757446289,-1.1683704853057861
1772739601936276700,14.22127685546875,6.995857238769531,-6.411672115325928,-1.0893617868423462
1772739601948798500,14.233798583984376,6.9240312576293945,-6.8378400802612305,-1.0271124839782715
1772739601956342000,14.241342041015624,6.691793918609619,-7.086836814880371,-1.1085153818130493
1772739601966391600,14.2513916015625,6.605602264404297,-7.261613845825195,-1.1971008777618408
1772739601986414800,14.271414794921874,6.3302693367004395,-7.242460250854492,-1.3096283674240112
1772739601996421600,14.281421630859375,6.325480937957764,-7.261613845825195,-1.091755986213684
1772739602006476300,14.291476318359376,6.426037311553955,-7.189787864685059,-0.8667010068893433
1772739602016475400,14.301475341796875,6.493074893951416,-6.900089263916016,-0.7948749661445618
1772739602026822100,14.311822265625,6.6127848625183105,-6.845022678375244,-0.7972691655158997
1772739602036525800,14.32152587890625,6.50025749206543,-7.024587631225586,-0.7972691655158997
1772739602046573800,14.33157373046875,6.473921298980713,-7.06528902053833,-0.8355764150619507
1772739602056594200,14.34159423828125,6.375759124755859,-6.943184852600098,-0.8236053586006165
1772739602066629600,14.351629638671875,6.303933143615723,-7.058106422424316,-0.727837324142456
1772739602076632600,14.361632568359376,6.19379997253418,-7.158663272857666,-0.7015010714530945
1772739602087310300,14.372310302734375,6.313509941101074,-7.29034423828125,-0.5195417404174805
1772739602096695300,14.3816953125,6.380547523498535,-7.261613845825195,-0.4141969084739685
1772739602108326700,14.39332666015625,6.584054470062256,-7.158663272857666,-0.1388636976480484
1772739602116729000,14.40172900390625,6.62236213684082,-7.038952827453613,0.038307227194309235
1772739602127096300,14.412096435546875,6.550535678863525,-6.964732646942139,0.08858546614646912
1772739602136776700,14.421776611328125,6.4595561027526855,-7.060500621795654,0.13168109953403473
1772739602146798000,14.431798095703124,5.990292549133301,-7.000645637512207,0.026336219161748886
1772739602156793900,14.4417939453125,5.901707172393799,-6.828263282775879,0.06224924325942993
