time,seconds_elapsed,z,y,x
1772739588344912000,0.629911865234375,9.749979019165039,1.0527539253234863,-0.0023902927059680223
1772739588355611000,0.64061083984375,9.75623607635498,0.9860577583312988,0.1180213987827301
1772739588365610200,0.6506103515625,9.751663208007812,1.033172607421875,0.08946962654590607
1772739588375986400,0.660986328125,9.747708320617676,1.0719587802886963,0.05894402787089348
1772739588385669600,0.670669677734375,9.747899055480957,1.0702195167541504,0.05899152159690857
1772739588395748000,0.680748046875,9.748265266418457,1.0667344331741333,0.06153477728366852
1772739588405776100,0.690776123046875,9.748276710510254,1.066470980644226,0.06423884630203247
1772739588415843800,0.70084375,9.74806022644043,1.068228840827942,0.06785250455141068
1772739588425872000,0.710871826171875,9.74766731262207,1.071494221687317,0.07261829823255539
1772739588436565000,0.72156494140625,9.747457504272461,1.0732545852661133,0.07480203360319138
1772739588458516700,0.743516845703125,9.745644569396973,1.0880687236785889,0.0944238156080246
1772739588466085600,0.751085693359375,9.745156288146973,1.0919677019119263,0.09963574260473251
1772739588476484000,0.761484130859375,9.744338035583496,1.0986049175262451,0.10646919906139374
1772739588487223000,0.77222314453125,9.743776321411133,1.1031874418258667,0.110416479408741
1772739588497275100,0.782275146484375,9.742847442626953,1.1106928586959839,0.11695297062397003
1772739588507294000,0.7922939453125,9.740891456604004,1.126357913017273,0.12938334047794342
1772739588517385200,0.80238525390625,9.739609718322754,1.136452078819275,0.1373538076877594
1772739588527376100,0.812376220703125,9.738520622253418,1.1447641849517822,0.14535361528396606
1772739588537434000,0.82243408203125,9.737677574157715,1.1509249210357666,0.15298019349575043
1772739588547440600,0.832440673828125,9.737443923950195,1.1525315046310425,0.15571476519107819
1772739588577858600,0.862858642578125,9.733283042907715,1.1838208436965942,0.17931480705738068
1772739588587564300,0.872564208984375,9.731635093688965,1.1962765455245972,0.18596261739730835
1772739588598246700,0.88324658203125,9.730091094970703,1.2078553438186646,0.19184347987174988
1772739588607624200,0.892624267578125,9.729141235351562,1.214911937713623,0.1954321563243866
1772739588619277800,0.90427783203125,9.72822380065918,1.2216757535934448,0.19887502491474152
1772739588627697700,0.91269775390625,9.727690696716309,1.2255804538726807,0.20092903077602386
1772739588637758000,0.922758056640625,9.727127075195312,1.2295856475830078,0.2037355899810791
1772739588647745800,0.932745849609375,9.726531028747559,1.2336370944976807,0.2076418399810791
1772739588678176500,0.963176513671875,9.723889350891113,1.2524676322937012,0.21838359534740448
1772739588687864600,0.972864501953125,9.72305965423584,1.2582765817642212,0.22192053496837616
1772739588697904600,0.982904541015625,9.72235107421875,1.2632235288619995,0.2248183786869049
1772739588707913700,0.992913818359375,9.722031593322754,1.2655682563781738,0.22546398639678955
1772739588717972200,1.00297216796875,9.721816062927246,1.2669328451156616,0.22705504298210144
1772739588727965700,1.012965576171875,9.7218017578125,1.2671098709106445,0.22671177983283997
1772739588738005200,1.023005126953125,9.72173023223877,1.2678639888763428,0.22554446756839752
1772739588748010800,1.0330107421875,9.721772193908691,1.2674543857574463,0.22603820264339447
1772739588758678500,1.043678466796875,9.721752166748047,1.267536997795105,0.2264319807291031
1772739588788416800,1.073416748046875,9.722007751464844,1.2667577266693115,0.21971286833286285
1772739588798225200,1.08322509765625,9.72221565246582,1.2658370733261108,0.21580669283866882
1772739588808244500,1.093244384765625,9.722260475158691,1.2658060789108276,0.2139449119567871
1772739588818282000,1.103281982421875,9.722638130187988,1.263112187385559,0.2127087563276291
1772739588828287500,1.11328759765625,9.722922325134277,1.2610880136489868,0.2117430567741394
1772739588838338800,1.1233388671875,9.723194122314453,1.259149432182312,0.21077260375022888
1772739588848329500,1.13332958984375,9.723010063171387,1.2607797384262085,0.20953284204006195
1772739588858358300,1.143358154296875,9.722707748413086,1.2632485628128052,0.20866824686527252
1772739588868374300,1.153374267578125,9.722293853759766,1.266557216644287,0.20790140330791473
1772739588898449400,1.183449462890625,9.722626686096191,1.2651472091674805,0.20082342624664307
1772739588908451300,1.193451416015625,9.722793579101562,1.2641526460647583,0.19900573790073395
1772739588919112200,1.2041123046875,9.722977638244629,1.263522744178772,0.19392047822475433
1772739588928495400,1.213495361328125,9.722761154174805,1.2655354738235474,0.1916332095861435
1772739588940161300,1.225161376953125,9.722076416015625,1.2714216709136963,0.1873473823070526
1772739588948560600,1.233560546875,9.721505165100098,1.276246190071106,0.18415482342243195
1772739588958613500,1.243613525390625,9.720670700073242,1.2832865715026855,0.17920739948749542
1772739588968601300,1.253601318359375,9.719624519348145,1.29203200340271,0.1730617731809616
1772739588978950000,1.263949951171875,9.718372344970703,1.302268624305725,0.16652776300907135
1772739588998698000,1.283697998046875,9.716154098510742,1.3200944662094116,0.15518245100975037
1772739589008691200,1.293691162109375,9.7152738571167,1.3271663188934326,0.14986813068389893
1772739589018734000,1.303734130859375,9.714461326599121,1.3337613344192505,0.1439039558172226
1772739589028733200,1.313733154296875,9.71413803100586,1.3364368677139282,0.1408545821905136
1772739589038781000,1.323781005859375,9.712504386901855,1.3495248556137085,0.12813027203083038
1772739589048768000,1.33376806640625,9.710870742797852,1.3620409965515137,0.11922456324100494
1772739589058805200,1.34380517578125,9.709427833557129,1.372925043106079,0.1117018461227417
1772739589068801000,1.353801025390625,9.707998275756836,1.3836525678634644,0.10326769948005676
1772739589079771000,1.36477099609375,9.707198143005371,1.389823317527771,0.09526582062244415
1772739589109056300,1.39405615234375,9.705667495727539,1.4020336866378784,0.06856135278940201
1772739589118967800,1.4039677734375,9.705114364624023,1.4062200784683228,0.06069083511829376
1772739589128978000,1.41397802734375,9.704537391662598,1.4104095697402954,0.0554913654923439
1772739589139031600,1.424031494140625,9.704411506652832,1.4114149808883667,0.051901381462812424
1772739589149025800,1.43402587890625,9.704345703125,1.4119316339492798,0.05012216791510582
1772739589159085800,1.4440859375,9.70438003540039,1.4117101430892944,0.04968786984682083
1772739589169104600,1.454104736328125,9.704374313354492,1.4117237329483032,0.050412457436323166
1772739589179473400,1.464473388671875,9.704094886779785,1.4135767221450806,0.05221833661198616
1772739589189154000,1.474154052734375,9.703715324401855,1.4160689115524292,0.055214960128068924
1772739589209248800,1.494248779296875,9.702961921691895,1.420871376991272,0.06354586035013199
1772739589219308500,1.50430859375,9.702709197998047,1.4225943088531494,0.06374218314886093
1772739589229304600,1.5143046875,9.701935768127441,1.4275985956192017,0.06933671981096268
1772739589239950300,1.524950439453125,9.701339721679688,1.4314441680908203,0.07328435778617859
1772739589249359000,1.534359130859375,9.701125144958496,1.432895541191101,0.07325944304466248
1772739589261026300,1.5460263671875,9.700596809387207,1.4361076354980469,0.08000987023115158
1772739589269432000,1.55443212890625,9.700369834899902,1.437628149986267,0.08026077598333359
1772739589279776300,1.5647763671875,9.700376510620117,1.4372673034667969,0.08571875095367432
1772739589289477400,1.574477294921875,9.700472831726074,1.436475396156311,0.08807189017534256
1772739589319573500,1.604573486328125,9.701719284057617,1.4275041818618774,0.09625153988599777
1772739589329585700,1.614585693359375,9.702219009399414,1.4240278005599976,0.09736111015081406
1772739589339642000,1.62464208984375,9.702386856079102,1.422811508178711,0.09836064279079437
1772739589349627000,1.634626953125,9.702138900756836,1.4244115352630615,0.09971161931753159
1772739589359659000,1.644658935546875,9.701847076416016,1.426414966583252,0.09943652898073196
1772739589369659400,1.654659423828125,9.70153522491455,1.4285944700241089,0.09859371930360794
1772739589380027600,1.665027587890625,9.701528549194336,1.4289004802703857,0.09476729482412338
1772739589389698600,1.674698486328125,9.701499938964844,1.429296612739563,0.09165135025978088
1772739589422301700,1.7073017578125,9.701798439025879,1.4278534650802612,0.08204225450754166
1772739589429832200,1.714832275390625,9.70209789276123,1.4259809255599976,0.07916297018527985
1772739589439870000,1.724869873046875,9.702309608459473,1.4247063398361206,0.07602306455373764
1772739589449873000,1.734872802734375,9.702775001525879,1.421684741973877,0.0732516273856163
1772739589459930400,1.744930419921875,9.703178405761719,1.4190917015075684,0.07001359760761261
1772739589469920800,1.754920654296875,9.70333194732666,1.4181170463562012,0.06839264184236526
1772739589480270600,1.7652705078125,9.70326042175293,1.4187639951705933,0.06506700813770294
1772739589489994500,1.774994384765625,9.702380180358887,1.4248384237289429,0.06358933448791504
1772739589500049000,1.785048828125,9.701547622680664,1.4306044578552246,0.06114281713962555
1772739589520074200,1.80507421875,9.700078964233398,1.440752387046814,0.055521249771118164
1772739589530078700,1.81507861328125,9.699772834777832,1.442860722541809,0.05427585542201996
1772739589540138500,1.825138427734375,9.699739456176758,1.4430769681930542,0.05452171713113785
1772739589550135600,1.835135498046875,9.6996488571167,1.4437246322631836,0.05348462983965874
1772739589560777000,1.84577685546875,9.700549125671387,1.437645673751831,0.054059579968452454
1772739589570176800,1.8551767578125,9.700821876525879,1.4358444213867188,0.05283588543534279
1772739589582184200,1.86718408203125,9.702194213867188,1.4265172481536865,0.05362893268465996
1772739589590248200,1.875248291015625,9.702361106872559,1.4253686666488647,0.0538853220641613
1772739589600277800,1.88527783203125,9.70201301574707,1.4276964664459229,0.054977793246507645
1772739589630346000,1.915345947265625,9.701025009155273,1.4342188835144043,0.05940123274922371
1772739589640394000,1.92539404296875,9.700873374938965,1.4349960088729858,0.06497421115636826
1772739589650413000,1.9354130859375,9.700565338134766,1.4370936155319214,0.06466251611709595
1772739589660468700,1.94546875,9.70004940032959,1.4404418468475342,0.0675666406750679
1772739589670465300,1.95546533203125,9.699602127075195,1.443257451057434,0.07155761122703552
1772739589680815000,1.965815185546875,9.699410438537598,1.444339632987976,0.0755329430103302
1772739589690532600,1.97553271484375,9.699579238891602,1.4430904388427734,0.07775500416755676
1772739589700588300,1.98558837890625,9.699812889099121,1.4413366317749023,0.0810718685388565
1772739589710581200,1.995581298828125,9.699929237365723,1.4403648376464844,0.0843045711517334
1772739589730648600,2.015648681640625,9.699134826660156,1.4452112913131714,0.0924355611205101
1772739589743194600,2.028194580078125,9.698921203613281,1.446433663368225,0.09563501924276352
1772739589750731500,2.0357314453125,9.698822975158691,1.4471230506896973,0.0951646938920021
1772739589760771800,2.045771728515625,9.698790550231934,1.4472113847732544,0.09711210429668427
1772739589770788600,2.05578857421875,9.699322700500488,1.443716049194336,0.0959915742278099
1772739589781164000,2.0661640625,9.699318885803223,1.4437615871429443,0.09559884667396545
1772739589790839000,2.075839111328125,9.700220108032227,1.4377280473709106,0.09518931806087494
1772739589800871000,2.085870849609375,9.700946807861328,1.4329311847686768,0.09344211220741272
1772739589810881300,2.09588134765625,9.7017183303833,1.4278504848480225,0.09114398807287216
1772739589840954400,2.125954345703125,9.702834129333496,1.4205834865570068,0.08570157736539841
1772739589850962700,2.135962646484375,9.703779220581055,1.4145883321762085,0.077379010617733
1772739589861018400,2.146018310546875,9.704572677612305,1.4095226526260376,0.07000526785850525
1772739589871001300,2.15600146484375,9.704904556274414,1.4074031114578247,0.06663958728313446
1772739589881955300,2.166955322265625,9.707489013671875,1.3899704217910767,0.05502009764313698
1772739589891047000,2.176046875,9.708043098449707,1.3862355947494507,0.05138393118977547
1772739589902692900,2.18769287109375,9.710063934326172,1.3723620176315308,0.04083871841430664
1772739589911093500,2.196093505859375,9.712282180786133,1.3569226264953613,0.026810118928551674
1772739589921122000,2.2061220703125,9.713276863098145,1.3499284982681274,0.018298311159014702
1772739589941176600,2.226176513671875,9.71401309967041,1.344732403755188,0.0059431265108287334
1772739589951159800,2.236159912109375,9.714144706726074,1.3437901735305786,-0.004608370829373598
1772739589961192000,2.24619189453125,9.714070320129395,1.3442788124084473,-0.011659604497253895
1772739589971202600,2.25620263671875,9.713919639587402,1.3453060388565063,-0.017902152612805367
1772739589981583600,2.26658349609375,9.713894844055176,1.3453770875930786,-0.024153394624590874
1772739589991257000,2.276257080078125,9.713912010192871,1.3451451063156128,-0.029680706560611725
1772739590001294600,2.286294677734375,9.714150428771973,1.3432655334472656,-0.03611709550023079
1772739590011327700,2.29632763671875,9.714357376098633,1.341626524925232,-0.041199952363967896
1772739590021390000,2.30639013671875,9.714579582214355,1.339935302734375,-0.04374108836054802
1772739590042039000,2.3270390625,9.71572494506836,1.3311787843704224,-0.05521094426512718
1772739590051443700,2.336443603515625,9.715957641601562,1.329345703125,-0.058194708079099655
1772739590063993000,2.3489931640625,9.715685844421387,1.3310908079147339,-0.06356478482484818
1772739590071527200,2.356527099609375,9.715414047241211,1.3329682350158691,-0.06566314399242401
1772739590081883100,2.366883056640625,9.714926719665527,1.3364193439483643,-0.06768763810396194
1772739590091590100,2.376590087890625,9.714876174926758,1.3365657329559326,-0.07185769081115723
1772739590101659100,2.3866591796875,9.714982986450195,1.335653305053711,-0.07426723092794418
1772739590111646700,2.396646728515625,9.715388298034668,1.3324896097183228,-0.07803542912006378
1772739590121982500,2.406982421875,9.715394973754883,1.33221435546875,-0.0818064734339714
1772739590141757400,2.42675732421875,9.71651554107666,1.323755145072937,-0.08594327419996262
1772739590151748600,2.43674853515625,9.716382026672363,1.3246448040008545,-0.08729469031095505
1772739590161791000,2.446791015625,9.716042518615723,1.3270632028579712,-0.08834625035524368
1772739590171830800,2.456830810546875,9.715938568115234,1.3277584314346313,-0.08943477272987366
1772739590182201600,2.46720166015625,9.715986251831055,1.3273332118988037,-0.09046440571546555
1772739590191878700,2.476878662109375,9.715877532958984,1.3280996084213257,-0.09083981812000275
1772739590202520300,2.487520263671875,9.715710639953613,1.3293509483337402,-0.09045688062906265
1772739590211924700,2.4969248046875,9.715611457824707,1.330093264579773,-0.09019231051206589
1772739590223626500,2.50862646484375,9.7155122756958,1.3308405876159668,-0.08974756300449371
1772739590252025000,2.537025146484375,9.715085983276367,1.334346890449524,-0.08374913036823273
1772739590262078200,2.547078125,9.71463394165039,1.337741732597351,-0.08198598772287369
1772739590272066800,2.55706689453125,9.714245796203613,1.3407236337661743,-0.07930274307727814
1772739590282408000,2.567407958984375,9.714194297790527,1.341171145439148,-0.07794036716222763
1772739590292109300,2.577109375,9.714181900024414,1.341278314590454,-0.07771971076726913
1772739590302161000,2.587160888671875,9.714590072631836,1.338502287864685,-0.07436206936836243
1772739590312148200,2.597148193359375,9.714577674865723,1.3387248516082764,-0.07198584824800491
1772739590322180600,2.6071806640625,9.71452522277832,1.339065670967102,-0.07272066175937653
1772739590352242700,2.63724267578125,9.715120315551758,1.3349629640579224,-0.06855784356594086
1772739590362892300,2.647892333984375,9.715398788452148,1.3330583572387695,-0.06612535566091537
1772739590372331300,2.657331298828125,9.715420722961426,1.3329355716705322,-0.0654720813035965
1772739590385215500,2.670215576171875,9.715405464172363,1.3330320119857788,-0.06569492816925049
1772739590392677400,2.677677490234375,9.715258598327637,1.3340179920196533,-0.06736965477466583
1772739590402481400,2.6874814453125,9.715094566345215,1.3352018594741821,-0.06761559098958969
1772739590412536300,2.697536376953125,9.71463680267334,1.3385268449783325,-0.06754143536090851
1772739590422605600,2.70760546875,9.714359283447266,1.3405228853225708,-0.06782908737659454
1772739590432605700,2.717605712890625,9.714117050170898,1.3424346446990967,-0.06475823372602463
1772739590462752300,2.747752197265625,9.713764190673828,1.3451803922653198,-0.06049085780978203
1772739590472760300,2.75776025390625,9.713788032531738,1.3450591564178467,-0.059371352195739746
1772739590483125000,2.768125,9.713862419128418,1.3445827960968018,-0.05789002776145935
1772739590492876800,2.777876708984375,9.714024543762207,1.3434239625930786,-0.057721976190805435
1772739590502941200,2.787941162109375,9.714520454406738,1.3398574590682983,-0.05725632980465889
1772739590512946200,2.7979462890625,9.714879989624023,1.3372488021850586,-0.05706044286489487
1772739590523609300,2.808609375,9.71523666381836,1.3346813917160034,-0.05655695125460625
1772739590533041000,2.818041015625,9.71528434753418,1.3343167304992676,-0.05690101534128189
1772739590544705300,2.829705322265625,9.715633392333984,1.331730842590332,-0.05789214372634888
1772739590563186400,2.8481865234375,9.716070175170898,1.328521966934204,-0.05839329957962036
1772739590573206000,2.8582060546875,9.716100692749023,1.3283369541168213,-0.05741780623793602
1772739590583588900,2.8685888671875,9.715987205505371,1.3291372060775757,-0.05808905512094498
1772739590593279200,2.878279296875,9.715995788574219,1.3290952444076538,-0.05763108283281326
1772739590603331600,2.88833154296875,9.714215278625488,1.341894507408142,-0.06109539791941643
1772739590613360400,2.8983603515625,9.712727546691895,1.3524737358093262,-0.0642654076218605
1772739590623427000,2.908427001953125,9.712051391601562,1.357359528541565,-0.06335829943418503
1772739590633428700,2.9184287109375,9.71012020111084,1.3709306716918945,-0.06710903346538544
1772739590643477500,2.9284775390625,9.706701278686523,1.3944973945617676,-0.07561550289392471
1772739590663565000,2.94856494140625,9.701475143432617,1.4301294088363647,-0.08062274008989334
1772739590673567700,2.958567626953125,9.699991226196289,1.4401520490646362,-0.08076383173465729
1772739590684536300,2.969536376953125,9.696247100830078,1.4646522998809814,-0.08932363986968994
1772739590693665000,2.9786650390625,9.69439697265625,1.4766414165496826,-0.09262955188751221
1772739590706221300,2.99122119140625,9.693461418151855,1.4826000928878784,-0.09537402540445328
1772739590713763800,2.998763916015625,9.690837860107422,1.499657154083252,-0.0953376442193985
1772739590723810000,3.00881005859375,9.68897819519043,1.5116276741027832,-0.09524031728506088
1772739590733834000,3.018833984375,9.687087059020996,1.5237079858779907,-0.09512326866388321
1772739590743901200,3.028901123046875,9.685454368591309,1.5341486930847168,-0.09343363344669342
1772739590773987600,3.058987548828125,9.684115409851074,1.5429896116256714,-0.08646686375141144
1772739590784362800,3.06936279296875,9.68438720703125,1.5407848358154297,-0.09500687569379807
1772739590794052000,3.079052001953125,9.685672760009766,1.532576322555542,-0.09666012227535248
1772739590804123000,3.089122802734375,9.686656951904297,1.5262407064437866,-0.0982772707939148
1772739590814177300,3.09917724609375,9.687470436096191,1.5208693742752075,-0.10134952515363693
1772739590824255000,3.1092548828125,9.688024520874023,1.5166215896606445,-0.11150653660297394
1772739590834269000,3.11926904296875,9.688802719116211,1.5111409425735474,-0.11810191720724106
1772739590844941300,3.12994140625,9.689939498901367,1.5035414695739746,-0.12176927924156189
1772739590866097400,3.151097412109375,9.690876960754395,1.497233271598816,-0.12477664649486542
1772739590874477800,3.159477783203125,9.691259384155273,1.4946480989456177,-0.12607385218143463
1772739590884835600,3.169835693359375,9.692071914672852,1.4892159700393677,-0.12791158258914948
1772739590894562600,3.1795625,9.69290542602539,1.4837480783462524,-0.1282820999622345
1772739590904626000,3.1896259765625,9.693875312805176,1.4775440692901611,-0.12665829062461853
1772739590914623500,3.19962353515625,9.694622039794922,1.472723126411438,-0.12563443183898926
1772739590924670700,3.209670654296875,9.695038795471191,1.470141887664795,-0.12368987500667572
1772739590934690000,3.21968994140625,9.694487571716309,1.4736034870147705,-0.1256248652935028
1772739590944757500,3.229757568359375,9.694396018981934,1.47432541847229,-0.12430844455957413
1772739590954755600,3.239755615234375,9.694296836853027,1.4751286506652832,-0.1224750205874443
1772739590985190100,3.270190185546875,9.69640064239502,1.4601197242736816,-0.13510917127132416
1772739590994876000,3.2798759765625,9.696249008178711,1.4604274034500122,-0.14246712625026703
1772739591005537000,3.290537109375,9.69560718536377,1.4636281728744507,-0.15288425981998444
1772739591014958800,3.299958740234375,9.695279121398926,1.4650442600250244,-0.160006582736969
1772739591027508000,3.312508056640625,9.695060729980469,1.466130018234253,-0.1632697582244873
1772739591035048400,3.32004833984375,9.694645881652832,1.4669421911239624,-0.179729163646698
1772739591045097700,3.33009765625,9.694247245788574,1.4681828022003174,-0.1907913088798523
1772739591055109600,3.340109619140625,9.693925857543945,1.4697436094284058,-0.19505071640014648
1772739591065162000,3.350161865234375,9.693312644958496,1.4713478088378906,-0.21262013912200928
1772739591085507000,3.370507080078125,9.691246032714844,1.4822256565093994,-0.23052498698234558
1772739591095214800,3.38021484375,9.689528465270996,1.4928654432296753,-0.23404885828495026
1772739591105266200,3.39026611328125,9.688752174377441,1.4975237846374512,-0.23641477525234222
1772739591115254800,3.4002548828125,9.684453964233398,1.5245964527130127,-0.23949666321277618
1772739591125292500,3.41029248046875,9.68326187133789,1.5318818092346191,-0.2412015050649643
1772739591135304200,3.42030419921875,9.675193786621094,1.582763433456421,-0.23637035489082336
1772739591145366000,3.430365966796875,9.66854190826416,1.6239937543869019,-0.22874534130096436
1772739591155357200,3.440357177734375,9.661779403686523,1.665400743484497,-0.21646423637866974
1772739591166002400,3.45100244140625,9.65503215789795,1.7061411142349243,-0.19956183433532715
1772739591195488800,3.48048876953125,9.643467903137207,1.7751578092575073,-0.1507864147424698
1772739591205532400,3.490532470703125,9.641498565673828,1.7872759103775024,-0.13241298496723175
1772739591215575600,3.500575439453125,9.640302658081055,1.795029640197754,-0.1132449060678482
1772739591225628700,3.510628662109375,9.638848304748535,1.8038653135299683,-0.09522095322608948
1772739591235619300,3.520619384765625,9.63761043548584,1.8109674453735352,-0.08512655645608902
1772739591245658600,3.53065869140625,9.633757591247559,1.8322150707244873,-0.06392696499824524
1772739591255679500,3.540679443359375,9.630970001220703,1.8472785949707031,-0.04869600757956505
1772739591265736200,3.550736083984375,9.627985000610352,1.8631023168563843,-0.0340067520737648
1772739591275732500,3.560732421875,9.626707077026367,1.8698714971542358,-0.02201009914278984
1772739591305873700,3.590873779296875,9.64687728881836,1.7613804340362549,-0.07548435777425766
1772739591315862800,3.60086279296875,9.650182723999023,1.742628574371338,-0.08718714118003845
1772739591326512400,3.611512451171875,9.670665740966797,1.6150648593902588,-0.2004297822713852
1772739591335943700,3.620943603515625,9.681478500366211,1.5364184379577637,-0.28068026900291443
1772739591348487700,3.63348779296875,9.685443878173828,1.504411220550537,-0.31514137983322144
1772739591356020700,3.641020751953125,9.696611404418945,1.3791290521621704,-0.4940689206123352
1772739591366057700,3.6510576171875,9.699040412902832,1.3125088214874268,-0.6134482622146606
1772739591376202000,3.661201904296875,9.697311401367188,1.2574530839920044,-0.7425273656845093
1772739591406165200,3.691165283203125,9.672438621520996,1.1346373558044434,-1.1519148349761963
1772739591416195000,3.701195068359375,9.660013198852539,1.0891594886779785,-1.291612148284912
1772739591426268700,3.7112685546875,9.6464204788208,1.0333688259124756,-1.4314727783203125
1772739591436260000,3.721260009765625,9.632471084594727,0.965242326259613,-1.5665866136550903
1772739591446301000,3.731301025390625,9.618632316589355,0.8788852095603943,-1.6970133781433105
1772739591456310000,3.74131005859375,9.605707168579102,0.7679101824760437,-1.8196395635604858
1772739591466362000,3.751362060546875,9.593273162841797,0.633337676525116,-1.9334882497787476
1772739591476358100,3.761358154296875,9.587594032287598,0.5974538326263428,-1.9726831912994385
1772739591510165200,3.795165283203125,9.534584999084473,-0.399806410074234,-2.258812665939331
1772739591518525400,3.803525390625,9.51284122467041,-0.6853852272033691,-2.2817742824554443
1772739591528586500,3.81358642578125,9.499722480773926,-0.83119136095047,-2.2879650592803955
1772739591538600200,3.82360009765625,9.427445411682129,-1.4159483909606934,-2.299727439880371
1772739591548672000,3.833672119140625,9.366999626159668,-1.7654087543487549,-2.305000066757202
1772739591558665200,3.843665283203125,9.335944175720215,-1.9217472076416016,-2.305955171585083
1772739591569185500,3.854185546875,9.206625938415527,-2.4685800075531006,-2.305325984954834
1772739591578727700,3.863727783203125,9.158628463745117,-2.6707441806793213,-2.2709126472473145
1772739591608836400,3.89383642578125,9.087077140808105,-3.0695078372955322,-2.04292368888855
1772739591618870000,3.9038701171875,9.086383819580078,-3.131629228591919,-1.949594497680664
1772739591628909000,3.913908935546875,9.093934059143066,-3.1624910831451416,-1.8626314401626587
1772739591638913300,3.923913330078125,9.105234146118164,-3.177619218826294,-1.7798408269882202
1772739591649581800,3.934581787109375,9.115028381347656,-3.1980772018432617,-1.6908421516418457
1772739591658978300,3.943978271484375,9.116711616516113,-3.235037326812744,-1.6094975471496582
1772739591671500300,3.956500244140625,9.104546546936035,-3.321260690689087,-1.4989463090896606
1772739591679056400,3.964056396484375,9.089393615722656,-3.3932814598083496,-1.4279171228408813
1772739591689419000,3.9744189453125,9.069178581237793,-3.4809343814849854,-1.342937707901001
1772739591719156700,4.00415673828125,8.948920249938965,-3.837327718734741,-1.1670997142791748
1772739591729222700,4.01422265625,8.926994323730469,-3.8939146995544434,-1.1474262475967407
1772739591739225300,4.024225341796875,8.874186515808105,-4.031429290771484,-1.0801793336868286
1772739591749256200,4.034256103515625,8.858368873596191,-4.079954147338867,-1.0264760255813599
1772739591759260700,4.0442607421875,8.855453491210938,-4.100820541381836,-0.9667422771453857
1772739591769325800,4.054325927734375,8.857110977172852,-4.110572338104248,-0.9083925485610962
1772739591779319300,4.0643193359375,8.858321189880371,-4.113673686981201,-0.8821680545806885
1772739591789668000,4.074668212890625,8.851743698120117,-4.144139289855957,-0.8019559383392334
1772739591810030000,4.095030029296875,8.835405349731445,-4.1914167404174805,-0.7335109114646912
1772739591819441200,4.104441162109375,8.818351745605469,-4.236658096313477,-0.6766027212142944
1772739591831081700,4.116081787109375,8.816567420959473,-4.247019290924072,-0.6335256099700928
1772739591839495000,4.124494873046875,8.82193374633789,-4.2414774894714355,-0.5947646498680115
1772739591849569500,4.134569580078125,8.833573341369629,-4.223480701446533,-0.5482536554336548
1772739591859567600,4.144567626953125,8.846179962158203,-4.202441692352295,-0.504940390586853
1772739591869601500,4.1546015625,8.856544494628906,-4.185550212860107,-0.4617140591144562
1772739591879598300,4.164598388671875,8.862665176391602,-4.1767401695251465,-0.42236328125
1772739591889957400,4.174957275390625,8.86865520477295,-4.16780948638916,-0.38300150632858276
1772739591919680800,4.2046806640625,8.900496482849121,-4.108842372894287,-0.26260945200920105
1772739591929730300,4.214730224609375,8.913361549377441,-4.081918239593506,-0.2455849051475525
1772739591939708400,4.22470849609375,8.936455726623535,-4.032795429229736,-0.21609815955162048
1772739591949738200,4.23473828125,8.948051452636719,-4.007897853851318,-0.19880010187625885
1772739591959742700,4.24474267578125,8.991665840148926,-3.912177801132202,-0.12328091263771057
1772739591970400300,4.255400146484375,9.010133743286133,-3.869389533996582,-0.12536856532096863
1772739591979782100,4.2647822265625,9.009601593017578,-3.8681023120880127,-0.18775787949562073
1772739591992621300,4.277621337890625,9.009148597717285,-3.8644959926605225,-0.26701676845550537
1772739592019915000,4.3049150390625,8.99525260925293,-3.890089988708496,-0.35072994232177734
1772739592029942800,4.31494287109375,8.983979225158691,-3.9143242835998535,-0.36954981088638306
1772739592039943000,4.32494287109375,8.980979919433594,-3.920088529586792,-0.3811788558959961
1772739592049992000,4.334991943359375,8.97732925415039,-3.928269386291504,-0.3829488754272461
1772739592059984000,4.34498388671875,8.981791496276855,-3.9192192554473877,-0.37086084485054016
1772739592070010600,4.3550107421875,8.994930267333984,-3.891650438308716,-0.3415815532207489
1772739592080014800,4.365014892578125,9.01146125793457,-3.856729030609131,-0.29933416843414307
1772739592090373400,4.375373291015625,9.0232572555542,-3.8323757648468018,-0.25320714712142944
1772739592100057600,4.3850576171875,9.031588554382324,-3.814807653427124,-0.21917395293712616
1772739592130750700,4.415750732421875,9.04395580291748,-3.788128614425659,-0.16535702347755432
1772739592140135400,4.425135498046875,9.051279067993164,-3.7708563804626465,-0.159297913312912
1772739592151799800,4.4367998046875,9.058985710144043,-3.7524423599243164,-0.1560303270816803
1772739592160185000,4.44518505859375,9.072372436523438,-3.719116449356079,-0.17499534785747528
1772739592170238500,4.455238525390625,9.074420928955078,-3.7134971618652344,-0.1876615583896637
1772739592180217600,4.465217529296875,9.075671195983887,-3.710153102874756,-0.19325058162212372
1772739592190554000,4.47555419921875,9.083852767944336,-3.6913464069366455,-0.16722042858600616
1772739592200247600,4.48524755859375,9.093506813049316,-3.6679441928863525,-0.15716825425624847
1772739592230327300,4.515327392578125,9.126934051513672,-3.5826680660247803,-0.18428945541381836
1772739592240337000,4.5253369140625,9.13282585144043,-3.5673131942749023,-0.190144881606102
1772739592250399000,4.53539892578125,9.142197608947754,-3.5422275066375732,-0.20789751410484314
1772739592260381000,4.545380859375,9.149002075195312,-3.5237553119659424,-0.2220369279384613
1772739592270409000,4.555408935546875,9.155136108398438,-3.506983518600464,-0.23440317809581757
1772739592280408600,4.56540869140625,9.162508964538574,-3.4865639209747314,-0.2503965198993683
1772739592291381000,4.576381103515625,9.16539192199707,-3.478029727935791,-0.2632259130477905
1772739592300470500,4.585470458984375,9.167119026184082,-3.4729418754577637,-0.2701532244682312
1772739592313004000,4.598004150390625,9.167993545532227,-3.470731496810913,-0.2688893973827362
1772739592330574000,4.615573974609375,9.171712875366211,-3.46189284324646,-0.2556723356246948
1772739592340561400,4.6255615234375,9.178228378295898,-3.445624589920044,-0.24122576415538788
1772739592350589200,4.635589111328125,9.186864852905273,-3.4238998889923096,-0.22090043127536774
1772739592360588000,4.645588134765625,9.200121879577637,-3.389268398284912,-0.20248304307460785
1772739592370640100,4.65564013671875,9.217939376831055,-3.3410444259643555,-0.19338883459568024
1772739592380628500,4.66562841796875,9.237520217895508,-3.2866530418395996,-0.19108064472675323
1772739592390985500,4.6759853515625,9.257416725158691,-3.2297894954681396,-0.1977139711380005
1772739592400679200,4.68567919921875,9.275970458984375,-3.175520658493042,-0.20696018636226654
1772739592410733600,4.695733642578125,9.2948637008667,-3.1188130378723145,-0.22113797068595886
1772739592440788500,4.72578857421875,9.342425346374512,-2.968996047973633,-0.27301153540611267
1772739592451454700,4.736454833984375,9.341095924377441,-2.971614360809326,-0.28951191902160645
1772739592460838400,4.74583837890625,9.338147163391113,-2.9795541763305664,-0.3027394413948059
1772739592472470300,4.75747021484375,9.32471752166748,-3.0195608139038086,-0.3198186755180359
1772739592480878300,4.76587841796875,9.310362815856934,-3.0624473094940186,-0.3300534784793854
1772739592491254000,4.77625390625,9.280194282531738,-3.1502299308776855,-0.35275983810424805
1772739592511000300,4.796000244140625,9.25848388671875,-3.2093653678894043,-0.38838985562324524
1772739592521009400,4.806009521484375,9.228255271911621,-3.294342279434204,-0.3962242007255554
1772739592551138000,4.836137939453125,9.188802719116211,-3.4024314880371094,-0.39969131350517273
1772739592561157400,4.846157470703125,9.182270050048828,-3.4199061393737793,-0.40067827701568604
1772739592571236000,4.856236083984375,9.168986320495605,-3.4568750858306885,-0.38742512464523315
1772739592581240800,4.86624072265625,9.161358833312988,-3.4777040481567383,-0.3814011514186859
1772739592591615200,4.876615234375,9.157255172729492,-3.488954544067383,-0.37716615200042725
1772739592601303600,4.886303466796875,9.153349876403809,-3.5012917518615723,-0.35712504386901855
1772739592612019000,4.89701904296875,9.150118827819824,-3.511000871658325,-0.344361275434494
1772739592621417500,4.90641748046875,9.147125244140625,-3.519705057144165,-0.33490535616874695
1772739592633947600,4.91894775390625,9.14468002319336,-3.527355909347534,-0.3208898901939392
1772739592651581200,4.936581298828125,9.144676208496094,-3.529553174972534,-0.295869380235672
1772739592661583000,4.9465830078125,9.150540351867676,-3.5156216621398926,-0.2799937129020691
1772739592671632100,4.956632080078125,9.153363227844238,-3.5086119174957275,-0.27564001083374023
1772739592681659600,4.96665966796875,9.171539306640625,-3.4629108905792236,-0.24798305332660675
1772739592692041200,4.977041259765625,9.183431625366211,-3.4322690963745117,-0.23346197605133057
1772739592701743900,4.986743896484375,9.194792747497559,-3.402064561843872,-0.2283061295747757
1772739592711796700,4.996796630859375,9.202596664428711,-3.3808999061584473,-0.2282615303993225
1772739592721816800,5.00681689453125,9.209067344665527,-3.3637428283691406,-0.22069641947746277
1772739592751957800,5.036957763671875,9.214187622070312,-3.3514392375946045,-0.1923309713602066
1772739592761982000,5.04698193359375,9.213824272155762,-3.352219343185425,-0.19611258804798126
1772739592772658200,5.057658203125,9.208965301513672,-3.367283582687378,-0.1635577380657196
1772739592782087700,5.067087646484375,9.20983600616455,-3.366196393966675,-0.13429199159145355
1772739592794090800,5.0790908203125,9.213972091674805,-3.3552234172821045,-0.12480821460485458
1772739592802188300,5.087188232421875,9.217598915100098,-3.3455324172973633,-0.11686991155147552
1772739592812253400,5.09725341796875,9.221184730529785,-3.33604097366333,-0.10475151240825653
1772739592822290000,5.1072900390625,9.224539756774902,-3.3269131183624268,-0.09955089539289474
1772739592832342300,5.11734228515625,9.228949546813965,-3.315004348754883,-0.08729098737239838
1772739592852446200,5.1374462890625,9.228010177612305,-3.3174805641174316,-0.09240732342004776
1772739592862464300,5.14746435546875,9.220861434936523,-3.3366503715515137,-0.11340011656284332
1772739592872524800,5.15752490234375,9.217304229736328,-3.3468048572540283,-0.1028834879398346
1772739592882546200,5.167546142578125,9.217514991760254,-3.345827102661133,-0.11513181775808334
1772739592892928500,5.177928466796875,9.219330787658691,-3.3410375118255615,-0.10858815163373947
1772739592902629400,5.18762939453125,9.22369384765625,-3.328735828399658,-0.11567775905132294
1772739592912676900,5.1976767578125,9.22989273071289,-3.311124563217163,-0.12619146704673767
1772739592922694700,5.207694580078125,9.237065315246582,-3.29046893119812,-0.14077718555927277
1772739592933366000,5.218365966796875,9.240595817565918,-3.2802345752716064,-0.14774532616138458
1772739592955286500,5.24028662109375,9.268434524536133,-3.1987457275390625,-0.18582254648208618
1772739592962988800,5.24798876953125,9.275312423706055,-3.1784489154815674,-0.1908900886774063
1772739592972913400,5.257913330078125,9.27933406829834,-3.166487216949463,-0.19421279430389404
1772739592982907100,5.2679072265625,9.284876823425293,-3.150308847427368,-0.19237762689590454
1772739592993260300,5.27826025390625,9.285733222961426,-3.1478471755981445,-0.1912999153137207
1772739593002959400,5.28795947265625,9.282386779785156,-3.1586861610412598,-0.17432445287704468
1772739593013019600,5.29801953125,9.279515266418457,-3.1680805683135986,-0.15577895939350128
1772739593023043600,5.308043701171875,9.275742530822754,-3.178574800491333,-0.16627836227416992
1772739593033085400,5.31808544921875,9.272440910339355,-3.1877267360687256,-0.17499211430549622
1772739593053165300,5.338165283203125,9.237604141235352,-3.2834479808807373,-0.23670616745948792
1772739593063169000,5.3481689453125,9.218972206115723,-3.3331165313720703,-0.2669791281223297
1772739593073218600,5.358218505859375,9.210260391235352,-3.3557746410369873,-0.2832970917224884
1772739593083231700,5.368231689453125,9.18391227722168,-3.423495292663574,-0.32532161474227905
1772739593094219500,5.379219482421875,9.174121856689453,-3.448162078857422,-0.3406637907028198
1772739593103323600,5.38832373046875,9.171951293945312,-3.453458786010742,-0.34542617201805115
1772739593114967300,5.39996728515625,9.16627025604248,-3.4667835235595703,-0.36234381794929504
1772739593123392300,5.408392333984375,9.16497802734375,-3.4693102836608887,-0.3707353174686432
1772739593133453600,5.41845361328125,9.164724349975586,-3.4688541889190674,-0.381132036447525
1772739593173590500,5.458590576171875,9.141507148742676,-3.5251293182373047,-0.420371413230896
1772739593183601700,5.4686015625,9.117324829101562,-3.583868980407715,-0.44793322682380676
1772739593193955600,5.47895556640625,9.101371765136719,-3.621340751647949,-0.470439076423645
1772739593203662800,5.488662841796875,9.085248947143555,-3.65946102142334,-0.4868069589138031
1772739593213728500,5.498728515625,9.067299842834473,-3.7025771141052246,-0.4953581392765045
1772739593223756300,5.50875634765625,9.051898002624512,-3.7399086952209473,-0.4965999722480774
1772739593233806800,5.518806884765625,9.037611961364746,-3.7744219303131104,-0.4956779181957245
1772739593243841800,5.528841796875,9.03292179107666,-3.785541534423828,-0.49637269973754883
1772739593276460800,5.561460693359375,8.997344017028809,-3.867795467376709,-0.508285641670227
1772739593284030000,5.569030029296875,8.988137245178223,-3.888457775115967,-0.5134941339492798
1772739593294414000,5.5794140625,8.974332809448242,-3.9192888736724854,-0.5204969048500061
1772739593304111900,5.58911181640625,8.960744857788086,-3.949542284011841,-0.5258793830871582
1772739593314159400,5.599159423828125,8.952871322631836,-3.966989755630493,-0.5286458134651184
1772739593324175600,5.609175537109375,8.936055183410645,-4.004045486450195,-0.5337803959846497
1772739593334241300,5.6192412109375,8.931217193603516,-4.014499187469482,-0.5362329483032227
1772739593344251000,5.6292509765625,8.93069076538086,-4.015237331390381,-0.5394695997238159
1772739593354299000,5.639298828125,8.934749603271484,-4.00587272644043,-0.5418620705604553
1772739593384394500,5.66939453125,8.957913398742676,-3.952310562133789,-0.5526451468467712
1772739593394754000,5.679754150390625,8.96833324432373,-3.927999973297119,-0.5569536685943604
1772739593404452900,5.689452880859375,8.973072052001953,-3.9167394638061523,-0.5599266886711121
1772739593415125000,5.700125,8.990263938903809,-3.8759050369262695,-0.568247377872467
1772739593424519200,5.709519287109375,9.000601768493652,-3.850923538208008,-0.5744016170501709
1772739593436197600,5.72119775390625,9.012155532836914,-3.821638345718384,-0.5886620879173279
1772739593444588800,5.7295888671875,9.021125793457031,-3.798523187637329,-0.6007514595985413
1772739593454645000,5.73964501953125,9.029363632202148,-3.77795672416687,-0.6066403388977051
1772739593464633300,5.74963330078125,9.038817405700684,-3.7537155151367188,-0.6162606477737427
1772739593495054800,5.780054931640625,9.056663513183594,-3.707943916320801,-0.631176233291626
1772739593504778000,5.789778076171875,9.060940742492676,-3.69742751121521,-0.6314758658409119
1772739593514823400,5.799823486328125,9.065169334411621,-3.6869523525238037,-0.6320536136627197
1772739593524838000,5.809837890625,9.067551612854004,-3.6822755336761475,-0.6250969767570496
1772739593534902000,5.819902099609375,9.065817832946777,-3.6872611045837402,-0.6208392381668091
1772739593544919800,5.829919921875,9.062490463256836,-3.6960697174072266,-0.6170223355293274
1772739593554963000,5.839962890625,9.055625915527344,-3.7136857509613037,-0.6120290160179138
1772739593564964900,5.84996484375,9.045245170593262,-3.740143060684204,-0.6043698787689209
1772739593575625500,5.86062548828125,9.038835525512695,-3.756248712539673,-0.600376546382904
1772739593598113000,5.883113037109375,9.015703201293945,-3.8154642581939697,-0.5742037296295166
1772739593605562600,5.890562744140625,9.014429092407227,-3.818588972091675,-0.5734372735023499
1772739593615151600,5.900151611328125,9.011895179748535,-3.8251519203186035,-0.569506049156189
1772739593625163000,5.9101630859375,9.011481285095215,-3.8260293006896973,-0.5701707005500793
1772739593635215600,5.920215576171875,9.01248550415039,-3.8231754302978516,-0.573425829410553
1772739593645230000,5.93022998046875,9.013616561889648,-3.820338487625122,-0.5745532512664795
1772739593655301600,5.940301513671875,9.014728546142578,-3.8162379264831543,-0.5842866897583008
1772739593665286700,5.95028662109375,9.015024185180664,-3.814222812652588,-0.5928182601928711
1772739593675336200,5.960336181640625,9.015557289123535,-3.811746835708618,-0.600589394569397
1772739593695719400,5.980719482421875,9.01867389678955,-3.8017423152923584,-0.6169814467430115
1772739593705393700,5.9903935546875,9.020974159240723,-3.794890880584717,-0.6254714727401733
1772739593715448000,6.000447998046875,9.025583267211914,-3.782780885696411,-0.6322999596595764
1772739593725450500,6.010450439453125,9.030582427978516,-3.7697951793670654,-0.6384464502334595
1772739593736134400,6.021134521484375,9.035517692565918,-3.7567696571350098,-0.6453726887702942
1772739593745507000,6.030507080078125,9.037881851196289,-3.7502858638763428,-0.6499381065368652
1772739593757159700,6.04215966796875,9.045709609985352,-3.7297277450561523,-0.6592856049537659
1772739593765584600,6.050584716796875,9.049718856811523,-3.7190146446228027,-0.6647598147392273
1772739593775645400,6.0606455078125,9.053754806518555,-3.708566904067993,-0.6681656837463379
1772739593795984400,6.080984375,9.060078620910645,-3.6930978298187256,-0.6681276559829712
1772739593805695200,6.0906953125,9.063286781311035,-3.685620069503784,-0.6658948063850403
1772739593815748000,6.100748046875,9.065470695495605,-3.6805410385131836,-0.664254367351532
1772739593825744100,6.110744140625,9.066610336303711,-3.6778557300567627,-0.6635847687721252
1772739593835782000,6.120781982421875,9.068086624145508,-3.6742405891418457,-0.6634436249732971
1772739593845798100,6.130798095703125,9.069999694824219,-3.6695098876953125,-0.6634594798088074
1772739593855855400,6.14085546875,9.071651458740234,-3.6652729511260986,-0.664314866065979
1772739593865844700,6.1508447265625,9.072941780090332,-3.6619396209716797,-0.6650742888450623
1772739593875880700,6.160880615234375,9.074402809143066,-3.6582133769989014,-0.6656356453895569
1772739593905971200,6.19097119140625,9.078465461730957,-3.6482443809509277,-0.6649625897407532
1772739593918493200,6.2034931640625,9.080948829650879,-3.6418745517730713,-0.6659649610519409
1772739593926057200,6.21105712890625,9.08188533782959,-3.6394717693328857,-0.666324257850647
1772739593936120300,6.221120361328125,9.083329200744629,-3.635744571685791,-0.6669914126396179
1772739593946113800,6.23111376953125,9.084033966064453,-3.6339242458343506,-0.6673153638839722
1772739593956152300,6.24115234375,9.086976051330566,-3.6265432834625244,-0.6674088835716248
1772739593966162000,6.251161865234375,9.08819580078125,-3.623290538787842,-0.6684780716896057
1772739593976220000,6.261219970703125,9.09017276763916,-3.617997407913208,-0.6702512502670288
1772739593986221300,6.27122119140625,9.093255043029785,-3.610219717025757,-0.6703903675079346
1772739594016339000,6.3013388671875,9.104137420654297,-3.58162260055542,-0.6760580539703369
1772739594026370000,6.3113701171875,9.10657787322998,-3.5751235485076904,-0.677593469619751
1772739594036428000,6.321427978515625,9.11056900024414,-3.564821720123291,-0.6782058477401733
1772739594046452000,6.331451904296875,9.112039566040039,-3.560732364654541,-0.6799260973930359
1772739594057127200,6.342127197265625,9.11301326751709,-3.5580623149871826,-0.6808632612228394
1772739594066524200,6.351524169921875,9.112506866455078,-3.55936861038208,-0.6808025240898132
1772739594078198800,6.36319873046875,9.111910820007324,-3.560865640640259,-0.6809564828872681
1772739594086604000,6.37160400390625,9.111140251159668,-3.5626583099365234,-0.6818899512290955
1772739594096964900,6.38196484375,9.111281394958496,-3.562272548675537,-0.6820170879364014
1772739594116676900,6.4016767578125,9.114176750183105,-3.5544426441192627,-0.6841793060302734
1772739594126690000,6.41168994140625,9.11572265625,-3.5502843856811523,-0.6851701140403748
1772739594136746800,6.421746826171875,9.116961479187012,-3.5469534397125244,-0.6859405636787415
1772739594146743800,6.431743896484375,9.11844539642334,-3.543245792388916,-0.6853776574134827
1772739594156775200,6.441775146484375,9.11873722076416,-3.5427868366241455,-0.6838730573654175
1772739594166777900,6.45177783203125,9.118786811828613,-3.5425031185150146,-0.6846769452095032
1772739594176836900,6.4618369140625,9.118258476257324,-3.5435314178466797,-0.6863955855369568
1772739594186822400,6.471822509765625,9.119826316833496,-3.5402190685272217,-0.6826399564743042
1772739594197161200,6.4821611328125,9.119686126708984,-3.540557622909546,-0.6827638149261475
1772739594206854400,6.4918544921875,9.121376037597656,-3.53645396232605,-0.6814541816711426
1772739594217513000,6.502512939453125,9.123775482177734,-3.530876636505127,-0.67824786901474
1772739594226906400,6.51190625,9.130804061889648,-3.514402151107788,-0.6691716313362122
1772739594239433200,6.52443310546875,9.137019157409668,-3.499662160873413,-0.6615430116653442
1772739594246989300,6.5319892578125,9.141955375671387,-3.487717390060425,-0.656402587890625
1772739594257055700,6.5420556640625,9.144634246826172,-3.4813363552093506,-0.6529465317726135
1772739594267052800,6.552052734375,9.15290641784668,-3.462639570236206,-0.63624507188797
1772739594277116200,6.5621162109375,9.158838272094727,-3.44903302192688,-0.6246920228004456
1772739594287129000,6.572129150390625,9.164849281311035,-3.4351181983947754,-0.6131055951118469
1772739594297502200,6.582502197265625,9.169931411743164,-3.423635721206665,-0.6012148261070251
1772739594307199200,6.59219921875,9.172520637512207,-3.417449474334717,-0.5968933701515198
1772739594327259100,6.612259033203125,9.179676055908203,-3.4022576808929443,-0.5732251405715942
1772739594337300500,6.622300537109375,9.182233810424805,-3.397352695465088,-0.5612205266952515
1772739594347310600,6.632310546875,9.183242797851562,-3.395099639892578,-0.5583301782608032
1772739594357366500,6.642366455078125,9.18271255493164,-3.3963711261749268,-0.5593265295028687
1772739594367354400,6.652354248046875,9.180855751037598,-3.4010133743286133,-0.5615968108177185
1772739594377997300,6.662997314453125,9.178220748901367,-3.407705307006836,-0.5640869140625
1772739594387400400,6.672400390625,9.175941467285156,-3.413407802581787,-0.566684365272522
1772739594399357000,6.68435693359375,9.173831939697266,-3.418311595916748,-0.5712621212005615
1772739594407465200,6.69246533203125,9.172483444213867,-3.421602487564087,-0.5732160806655884
1772739594437590300,6.72259033203125,9.175562858581543,-3.4118528366088867,-0.5819718241691589
1772739594447578600,6.73257861328125,9.178511619567871,-3.4028983116149902,-0.5878840088844299
1772739594457611000,6.742611083984375,9.18012809753418,-3.3983001708984375,-0.5892313718795776
1772739594467624000,6.7526240234375,9.183147430419922,-3.3886122703552246,-0.597907304763794
1772739594477684700,6.762684814453125,9.184983253479004,-3.3824405670166016,-0.6046136617660522
1772739594487669000,6.7726689453125,9.186022758483887,-3.3782572746276855,-0.6121765971183777
1772739594498008000,6.783008056640625,9.186755180358887,-3.3750758171081543,-0.61869877576828
1772739594508742400,6.793742431640625,9.186683654785156,-3.374236822128296,-0.6243018507957458
1772739594518817500,6.803817626953125,9.186532974243164,-3.3736555576324463,-0.6296360492706299
1772739594539445500,6.824445556640625,9.185933113098145,-3.373828172683716,-0.6374104619026184
1772739594548847600,6.83384765625,9.18603801727295,-3.373018741607666,-0.6401883363723755
1772739594561382700,6.846382568359375,9.186990737915039,-3.370307445526123,-0.640807569026947
1772739594568910800,6.853910888671875,9.18780517578125,-3.368093252182007,-0.6407581567764282
1772739594578946800,6.86394677734375,9.18918514251709,-3.364638328552246,-0.639121413230896
1772739594588949200,6.87394921875,9.189992904663086,-3.362492799758911,-0.6387895941734314
1772739594599311600,6.8843115234375,9.190057754516602,-3.362739324569702,-0.6365624666213989
1772739594608995800,6.893995849609375,9.190009117126465,-3.3629605770111084,-0.6360957026481628
1772739594619031000,6.904031005859375,9.189942359924316,-3.3632521629333496,-0.635518491268158
1772739594649090300,6.93409033203125,9.186863899230957,-3.3730785846710205,-0.6279011964797974
1772739594659126300,6.944126220703125,9.184438705444336,-3.3794896602630615,-0.6289047002792358
1772739594669127200,6.954127197265625,9.183147430419922,-3.3829076290130615,-0.6293982863426208
1772739594679179800,6.9641796875,9.177535057067871,-3.3975489139556885,-0.6323778033256531
1772739594689160400,6.974160400390625,9.175580024719238,-3.4026098251342773,-0.6335235238075256
1772739594700109800,6.98510986328125,9.170928001403809,-3.4142472743988037,-0.6382662653923035
1772739594709202000,6.994201904296875,9.16257095336914,-3.4350507259368896,-0.6466132998466492
1772739594720896800,7.005896728515625,9.15613842010498,-3.4508252143859863,-0.6537076830863953
1772739594749293300,7.034293212890625,9.147383689880371,-3.4725356101989746,-0.6612523794174194
1772739594759365000,7.044365234375,9.14604377746582,-3.4758787155151367,-0.6622253060340881
1772739594769358800,7.05435888671875,9.146527290344238,-3.474494218826294,-0.6628029942512512
1772739594779393300,7.064393310546875,9.149317741394043,-3.467682123184204,-0.6599720120429993
1772739594789411000,7.0744111328125,9.152366638183594,-3.46040940284729,-0.655850887298584
1772739594799782000,7.084781982421875,9.154318809509277,-3.4554407596588135,-0.6548051238059998
1772739594809459200,7.094459228515625,9.154818534851074,-3.4552648067474365,-0.6487201452255249
1772739594819491600,7.10449169921875,9.154725074768066,-3.4562458992004395,-0.6447953581809998
1772739594829528000,7.114528076171875,9.152874946594238,-3.4614756107330322,-0.6429980397224426
1772739594849570800,7.13457080078125,9.145679473876953,-3.4812984466552734,-0.6383633017539978
1772739594860215300,7.14521533203125,9.141350746154785,-3.492818593978882,-0.6374258995056152
1772739594869622800,7.154622802734375,9.137507438659668,-3.5031111240386963,-0.636043906211853
1772739594882158300,7.167158447265625,9.131009101867676,-3.520521640777588,-0.6332292556762695
1772739594889685000,7.17468505859375,9.12695598602295,-3.531276226043701,-0.6317760944366455
1772739594900048400,7.18504833984375,9.120765686035156,-3.5475292205810547,-0.6301277875900269
1772739594909757200,7.194757080078125,9.118449211120605,-3.553476333618164,-0.6301359534263611
1772739594919808500,7.20480859375,9.11155891418457,-3.570957660675049,-0.6309880018234253
1772739594929797600,7.214797607421875,9.099870681762695,-3.600606679916382,-0.6311691403388977
1772739594959898600,7.244898681640625,9.078773498535156,-3.652716875076294,-0.635539710521698
1772739594969883400,7.25488330078125,9.073005676269531,-3.666823148727417,-0.6366822719573975
1772739594979917800,7.264917724609375,9.06747817993164,-3.6801700592041016,-0.6384238600730896
1772739594989919700,7.274919677734375,9.063194274902344,-3.690877676010132,-0.6374251246452332
1772739595000299000,7.285299072265625,9.059619903564453,-3.699881076812744,-0.6360451579093933
1772739595009982000,7.29498193359375,9.05726146697998,-3.7055587768554688,-0.6365869641304016
1772739595020631800,7.3056318359375,9.055157661437988,-3.7108311653137207,-0.6358028650283813
1772739595030052900,7.315052978515625,9.054187774658203,-3.7132835388183594,-0.6352903246879578
1772739595060200200,7.3452001953125,9.048362731933594,-3.7283194065093994,-0.6302034258842468
1772739595070218800,7.35521875,9.04572868347168,-3.7345571517944336,-0.6310733556747437
1772739595080295700,7.365295654296875,9.043493270874023,-3.739544630050659,-0.6335720419883728
1772739595090680300,7.375680419921875,9.041698455810547,-3.7435154914855957,-0.6357485055923462
1772739595100658200,7.385658203125,9.041101455688477,-3.744713544845581,-0.6371684670448303
1772739595110378800,7.395378662109375,9.04166030883789,-3.7431247234344482,-0.6385713815689087
1772739595120457700,7.405457763671875,9.04535961151123,-3.733431339263916,-0.6429176926612854
1772739595130478000,7.41547802734375,9.05300235748291,-3.713897466659546,-0.6484555006027222
1772739595140519400,7.42551953125,9.065703392028809,-3.682494640350342,-0.650110125541687
1772739595160629800,7.445629638671875,9.106470108032227,-3.580897092819214,-0.6478935480117798
1772739595170640000,7.455639892578125,9.116714477539062,-3.554621458053589,-0.6485098004341125
1772739595181299500,7.466299560546875,9.153572082519531,-3.459318161010742,-0.6446872353553772
1772739595190719200,7.47571923828125,9.173056602478027,-3.4081289768218994,-0.640377938747406
1772739595203624400,7.48862451171875,9.19755744934082,-3.3426127433776855,-0.6342446208000183
1772739595211087000,7.496087158203125,9.212156295776367,-3.303152561187744,-0.6290873885154724
1772739595220891000,7.505890869140625,9.220649719238281,-3.279367446899414,-0.6290877461433411
1772739595230936800,7.515936767578125,9.237658500671387,-3.235032558441162,-0.6087853908538818
1772739595241000400,7.52600048828125,9.241686820983887,-3.2242414951324463,-0.6048746109008789
1772739595261037000,7.546037109375,9.254079818725586,-3.198479175567627,-0.5496644973754883
1772739595271058700,7.55605859375,9.258610725402832,-3.190457820892334,-0.519124448299408
1772739595281117700,7.56611767578125,9.2662353515625,-3.1739587783813477,-0.482971727848053
1772739595291112400,7.576112548828125,9.2763671875,-3.1503801345825195,-0.4410259425640106
1772739595301464000,7.586464111328125,9.288125991821289,-3.121333122253418,-0.3979719877243042
1772739595311175000,7.5961748046875,9.294326782226562,-3.104980945587158,-0.3807324171066284
1772739595321237800,7.60623779296875,9.309123992919922,-3.0671305656433105,-0.3214108347892761
1772739595331234800,7.61623486328125,9.316035270690918,-3.049168348312378,-0.2906032204627991
1772739595341882400,7.62688232421875,9.319929122924805,-3.039642572402954,-0.26435720920562744
1772739595363005400,7.64800537109375,9.319561958312988,-3.042576789855957,-0.24265439808368683
1772739595371365600,7.65636572265625,9.3135347366333,-3.061284303665161,-0.23872824013233185
1772739595381416400,7.66641650390625,9.31152629852295,-3.0675127506256104,-0.23713885247707367
1772739595391422500,7.67642236328125,9.302218437194824,-3.0946946144104004,-0.24897359311580658
1772739595401791700,7.686791748046875,9.299647331237793,-3.1020901203155518,-0.2529517114162445
1772739595411468800,7.69646875,9.290412902832031,-3.12752628326416,-0.27783897519111633
1772739595421507600,7.706507568359375,9.285189628601074,-3.1411328315734863,-0.2981855571269989
1772739595431528400,7.716528564453125,9.281811714172363,-3.149057149887085,-0.31905075907707214
1772739595441586000,7.7265859375,9.279228210449219,-3.15433406829834,-0.34128883481025696
1772739595471646000,7.75664599609375,9.275216102600098,-3.158125638961792,-0.40866029262542725
1772739595481703000,7.766702880859375,9.275471687316895,-3.1548659801483154,-0.4275989234447479
1772739595491692800,7.77669287109375,9.275472640991211,-3.1531097888946533,-0.4403332769870758
1772739595502643200,7.787643310546875,9.274090766906738,-3.1556179523468018,-0.4513359069824219
1772739595512765400,7.797765380859375,9.271080017089844,-3.1634280681610107,-0.45846888422966003
1772739595525357300,7.810357421875,9.267239570617676,-3.1741111278533936,-0.4622576832771301
1772739595532842500,7.817842529296875,9.264513969421387,-3.1817967891693115,-0.46405795216560364
1772739595542887200,7.82788720703125,9.262666702270508,-3.187499523162842,-0.46177950501441956
1772739595552902000,7.83790185546875,9.263073921203613,-3.1871442794799805,-0.4560295641422272
1772739595583003000,7.8680029296875,9.270009994506836,-3.1713504791259766,-0.4240734875202179
1772739595593025300,7.878025390625,9.27159595489502,-3.168598175048828,-0.40972527861595154
1772739595603406600,7.888406494140625,9.272181510925293,-3.168647527694702,-0.395866721868515
1772739595613067300,7.8980673828125,9.272638320922852,-3.1681571006774902,-0.38905608654022217
1772739595623122400,7.908122314453125,9.267159461975098,-3.186213970184326,-0.37171778082847595
1772739595633170000,7.918169921875,9.26244831085205,-3.200974225997925,-0.3622114956378937
1772739595643227000,7.928226806640625,9.26021671295166,-3.2078497409820557,-0.3584403693675995
1772739595653213400,7.93821337890625,9.253110885620117,-3.229722261428833,-0.34528326988220215
1772739595663859000,7.94885888671875,9.249807357788086,-3.23991060256958,-0.338287889957428
1772739595684930000,7.969929931640625,9.246173858642578,-3.2507057189941406,-0.3340049386024475
1772739595693335800,7.978335693359375,9.246854782104492,-3.2486491203308105,-0.33517661690711975
1772739595703683800,7.988683837890625,9.249950408935547,-3.239706516265869,-0.3363055884838104
1772739595713398000,7.99839794921875,9.253273010253906,-3.2302563190460205,-0.3358190357685089
1772739595723461000,8.008461181640625,9.25495433807373,-3.2253475189208984,-0.33665651082992554
1772739595733443600,8.018443603515625,9.254742622375488,-3.225898265838623,-0.3372257947921753
1772739595743471600,8.0284716796875,9.253942489624023,-3.227972984313965,-0.3392993211746216
1772739595753500400,8.03850048828125,9.253861427307129,-3.2282207012176514,-0.33914968371391296
1772739595763549400,8.048549560546874,9.253061294555664,-3.230543613433838,-0.33886998891830444
1772739595793573400,8.078573486328125,9.252372741699219,-3.232485055923462,-0.3391675055027008
1772739595803945000,8.088945068359376,9.25202465057373,-3.2336599826812744,-0.33745869994163513
1772739595813605000,8.098605224609376,9.252304077148438,-3.2329838275909424,-0.33626386523246765
1772739595824244700,8.10924462890625,9.251080513000488,-3.2375996112823486,-0.3253174126148224
1772739595833645800,8.118645751953125,9.25035285949707,-3.2402641773223877,-0.31944695115089417
1772739595846174500,8.131174560546874,9.2506103515625,-3.2395405769348145,-0.319332093000412
1772739595853701000,8.138701171875,9.245488166809082,-3.255436658859253,-0.3057381212711334
1772739595863740200,8.148740234375,9.241403579711914,-3.2678167819976807,-0.29699286818504333
1772739595873745200,8.1587451171875,9.236165046691895,-3.2830724716186523,-0.29168981313705444
1772739595893780500,8.178780517578126,9.228323936462402,-3.3053510189056396,-0.288234680891037
1772739595904125700,8.189125732421875,9.222944259643555,-3.320507049560547,-0.28621116280555725
1772739595913837300,8.19883740234375,9.22072982788086,-3.3264355659484863,-0.2886960506439209
1772739595923894500,8.20889453125,9.220020294189453,-3.3280513286590576,-0.2927483916282654
1772739595933886500,8.218886474609375,9.220579147338867,-3.3259944915771484,-0.2984314262866974
1772739595943934700,8.228934814453124,9.221501350402832,-3.3228280544281006,-0.30514195561408997
1772739595953950200,8.2389501953125,9.222709655761719,-3.31917405128479,-0.3084016740322113
1772739595964013000,8.249012939453126,9.220670700073242,-3.324010133743286,-0.3171142041683197
1772739595974005500,8.259005615234376,9.219953536987305,-3.325618267059326,-0.3211205005645752
1772739595994072300,8.279072265625,9.210977554321289,-3.349017381668091,-0.33520907163619995
1772739596006080300,8.291080322265625,9.206393241882324,-3.360858917236328,-0.3425425589084625
1772739596014151200,8.299151123046874,9.203795433044434,-3.367530107498169,-0.3468239903450012
1772739596024187100,8.309187255859374,9.201765060424805,-3.3730883598327637,-0.34667885303497314
1772739596034223900,8.319223876953124,9.200639724731445,-3.376363515853882,-0.34466955065727234
1772739596044279300,8.329279296875,9.202433586120605,-3.372189521789551,-0.3375559151172638
1772739596054267000,8.339266845703126,9.205307006835938,-3.3646960258483887,-0.33396774530410767
1772739596064302600,8.349302490234376,9.209244728088379,-3.354111433029175,-0.33186182379722595
1772739596074321200,8.359321044921876,9.21202564239502,-3.346374988555908,-0.3327927887439728
1772739596104730400,8.38973046875,9.210355758666992,-3.3494603633880615,-0.34762269258499146
1772739596114438100,8.399438232421875,9.20697021484375,-3.3580310344696045,-0.354561448097229
1772739596124488700,8.40948876953125,9.205416679382324,-3.361809015274048,-0.359062522649765
1772739596134474500,8.419474609375,9.201659202575684,-3.3713910579681396,-0.365477055311203
1772739596145115400,8.430115478515624,9.194178581237793,-3.3907864093780518,-0.3742278814315796
1772739596154517800,8.439517822265625,9.19079875946045,-3.3994641304016113,-0.3784772753715515
1772739596167057200,8.45205712890625,9.187174797058105,-3.408336639404297,-0.38658854365348816
1772739596174585000,8.459585205078126,9.184720039367676,-3.414193630218506,-0.3931877017021179
1772739596204989700,8.48998974609375,9.184834480285645,-3.4112532138824463,-0.41540202498435974
1772739596214670600,8.499670654296875,9.189455032348633,-3.3972251415252686,-0.42796650528907776
1772739596224705800,8.509705810546874,9.191170692443848,-3.392244815826416,-0.43062591552734375
1772739596234720000,8.519719970703125,9.194422721862793,-3.381519317626953,-0.4453098177909851
1772739596244770000,8.52977001953125,9.194613456726074,-3.3804328441619873,-0.4496162235736847
1772739596254765000,8.53976513671875,9.198436737060547,-3.3676626682281494,-0.4669046103954315
1772739596264795400,8.54979541015625,9.201129913330078,-3.35829758644104,-0.4810672998428345
1772739596274803500,8.559803466796875,9.202974319458008,-3.3512556552886963,-0.4946938157081604
1772739596284858000,8.569858154296876,9.205220222473145,-3.3430874347686768,-0.5080137848854065
1772739596314896400,8.599896484375,9.208541870117188,-3.32684063911438,-0.5525179505348206
1772739596326541000,8.611541015625,9.207626342773438,-3.326005697250366,-0.5724508166313171
1772739596334949400,8.619949462890625,9.205632209777832,-3.3293960094451904,-0.5846764445304871
1772739596344982500,8.629982421875,9.201650619506836,-3.337376832962036,-0.601600170135498
1772739596355000000,8.64,9.200531005859375,-3.338913679122925,-0.6101359128952026
1772739596365051100,8.650051025390624,9.188270568847656,-3.366898536682129,-0.6403626203536987
1772739596375037400,8.660037353515625,9.17875862121582,-3.3891890048980713,-0.6589227914810181
1772739596385069300,8.6700693359375,9.168031692504883,-3.4143412113189697,-0.6781225800514221
1772739596415165400,8.70016552734375,9.135089874267578,-3.4938676357269287,-0.7165319323539734
1772739596425198000,8.710197998046874,9.125411987304688,-3.5176374912261963,-0.7235097885131836
1772739596435235600,8.720235595703125,9.117512702941895,-3.536681652069092,-0.7302364706993103
1772739596445299500,8.730299560546875,9.110271453857422,-3.5539584159851074,-0.7367008328437805
1772739596455283000,8.740282958984375,9.102668762207031,-3.5723845958709717,-0.7415433526039124
1772739596465923000,8.750923095703126,9.09287166595459,-3.5957603454589844,-0.7487224340438843
1772739596475332900,8.760332763671874,9.085006713867188,-3.6142895221710205,-0.7549556493759155
1772739596487872500,8.77287255859375,9.08139419555664,-3.6223676204681396,-0.7596863508224487
1772739596515470800,8.800470947265625,9.054762840270996,-3.6866555213928223,-0.7682612538337708
1772739596525526000,8.810526123046875,9.0469331741333,-3.7054286003112793,-0.77017742395401
1772739596535515000,8.820514892578124,9.035362243652344,-3.732698440551758,-0.7743175029754639
1772739596545597200,8.83059716796875,9.02097225189209,-3.7661614418029785,-0.7800441980361938
1772739596555618800,8.840618896484376,9.003353118896484,-3.8061811923980713,-0.7893089056015015
1772739596565677300,8.85067724609375,8.9833402633667,-3.8505971431732178,-0.8018041849136353
1772739596575670500,8.86067041015625,8.962892532348633,-3.8946471214294434,-0.8177259564399719
1772739596586117000,8.8711171875,8.938769340515137,-3.946302652359009,-0.8339632749557495
1772739596595731200,8.880731201171875,8.915316581726074,-3.9959750175476074,-0.8483535051345825
1772739596626427400,8.911427490234376,8.840625762939453,-4.148954391479492,-0.8943662643432617
1772739596635850500,8.9208505859375,8.815374374389648,-4.198535919189453,-0.9120665788650513
1772739596647557600,8.9325576171875,8.783411979675293,-4.260915756225586,-0.9309383630752563
1772739596655913500,8.94091357421875,8.771942138671875,-4.28374719619751,-0.9343135952949524
1772739596665947400,8.950947509765625,8.739278793334961,-4.346372604370117,-0.9510229825973511
1772739596675960600,8.960960693359375,8.726367950439453,-4.369794845581055,-0.9621776342391968
1772739596686009000,8.971009033203124,8.718345642089844,-4.38388729095459,-0.9707581996917725
1772739596695990000,8.980989990234375,8.713050842285156,-4.392719268798828,-0.9783350825309753
1772739596706339000,8.991339111328125,8.707573890686035,-4.401773929595947,-0.9863666892051697
1772739596726091500,9.011091552734374,8.689398765563965,-4.43536376953125,-0.9961315393447876
1772739596736089600,9.021089599609375,8.674379348754883,-4.463998317718506,-0.9991225600242615
1772739596746171400,9.03117138671875,8.658147811889648,-4.4944047927856445,-1.0035901069641113
1772739596756236000,9.041236083984375,8.641508102416992,-4.525792121887207,-1.0059475898742676
1772739596766293500,9.05129345703125,8.629107475280762,-4.549121856689453,-1.0071730613708496
1772739596776277000,9.061277099609375,8.62076187133789,-4.564939022064209,-1.0070652961730957
1772739596786929000,9.071928955078125,8.618182182312012,-4.5700364112854,-1.0060324668884277
1772739596796324400,9.081324462890626,8.61888313293457,-4.56866455078125,-1.0062530040740967
1772739596826424800,9.1114248046875,8.64657211303711,-4.518857955932617,-0.9935299754142761
1772739596836464000,9.121464111328125,8.65666389465332,-4.502103805541992,-0.9816408157348633
1772739596846521600,9.131521484375,8.659846305847168,-4.49655294418335,-0.9790171980857849
1772739596856514600,9.1415146484375,8.663407325744629,-4.491776943206787,-0.9693776965141296
1772739596866564900,9.15156494140625,8.664443016052246,-4.4905924797058105,-0.9656020998954773
1772739596876591600,9.161591552734375,8.664351463317871,-4.491140842437744,-0.9638798236846924
1772739596886664200,9.171664306640626,8.66722583770752,-4.487462520599365,-0.9551309943199158
1772739596896668700,9.181668701171875,8.668745994567871,-4.48576021194458,-0.9493055939674377
1772739596907132400,9.19213232421875,8.670953750610352,-4.482872009277344,-0.9427710771560669
1772739596926810600,9.211810546875,8.677382469177246,-4.47357177734375,-0.9276700615882874
1772739596936835300,9.22183544921875,8.68018913269043,-4.469735622406006,-0.91987144947052
1772739596947507700,9.2325078125,8.681983947753906,-4.466644763946533,-0.9179501533508301
1772739596956917500,9.24191748046875,8.685945510864258,-4.461880207061768,-0.9035323858261108
1772739596968583700,9.253583740234374,8.687333106994629,-4.459850311279297,-0.900201141834259
1772739596977013000,9.262012939453125,8.688532829284668,-4.459493160247803,-0.8903416991233826
1772739596987083800,9.272083740234375,8.688199996948242,-4.4619059562683105,-0.881455659866333
1772739596997092900,9.2820927734375,8.686223030090332,-4.4687676429748535,-0.8660470843315125
1772739597017193500,9.302193359375,8.68484115600586,-4.4743170738220215,-0.8511161804199219
1772739597027294000,9.3122939453125,8.685317039489746,-4.474884033203125,-0.8432490229606628
1772739597047398000,9.33239794921875,8.697272300720215,-4.454573631286621,-0.8274227380752563
1772739597057437000,9.34243701171875,8.700945854187012,-4.44793176651001,-0.8245179653167725
1772739597067526000,9.35252587890625,8.708439826965332,-4.434043884277344,-0.8201878070831299
1772739597077554400,9.362554443359375,8.717196464538574,-4.417994976043701,-0.8137586712837219
1772739597087629800,9.3726298828125,8.723788261413574,-4.406469821929932,-0.8055630326271057
1772739597097675000,9.382675048828125,8.729931831359863,-4.395691871643066,-0.7978587746620178
1772739597108688400,9.3936884765625,8.733863830566406,-4.39030122756958,-0.78438401222229
1772739597117803300,9.40280322265625,8.73579216003418,-4.386937618255615,-0.7817342281341553
1772739597130367700,9.41536767578125,8.736076354980469,-4.387714862823486,-0.7741554975509644
1772739597137962500,9.42296240234375,8.734763145446777,-4.391533374786377,-0.7673014402389526
1772739597148043500,9.43304345703125,8.733294486999512,-4.395655155181885,-0.7603784799575806
1772739597158068500,9.443068359375,8.730268478393555,-4.402764320373535,-0.7539697289466858
1772739597168139500,9.453139404296875,8.725262641906738,-4.414416790008545,-0.7437049746513367
1772739597178183700,9.46318359375,8.722228050231934,-4.421489715576172,-0.7372620701789856
1772739597188269300,9.473269287109375,8.718472480773926,-4.429930210113525,-0.7309932112693787
1772739597198308900,9.483308837890625,8.71340274810791,-4.440867900848389,-0.7250509262084961
1772739597208701700,9.49370166015625,8.709943771362305,-4.448808670043945,-0.7178933620452881
1772739597218421500,9.50342138671875,8.70974349975586,-4.44960880279541,-0.7153499126434326
1772739597228520400,9.5135205078125,8.706204414367676,-4.459015846252441,-0.6996939182281494
1772739597248647000,9.53364697265625,8.701614379882812,-4.470400810241699,-0.6839686632156372
1772739597258656500,9.543656494140626,8.696635246276855,-4.482870101928711,-0.6654353737831116
1772739597269322200,9.554322265625,8.694537162780762,-4.488414764404297,-0.6553927659988403
1772739597278711800,9.5637119140625,8.694090843200684,-4.489724159240723,-0.6523386240005493
1772739597290382800,9.5753828125,8.692541122436523,-4.494293212890625,-0.6414446830749512
1772739597298773500,9.5837734375,8.6915922164917,-4.496743202209473,-0.6371163129806519
1772739597309144300,9.594144287109375,8.690173149108887,-4.500113010406494,-0.6326538324356079
1772739597318834200,9.603834228515625,8.688837051391602,-4.503123760223389,-0.6295809149742126
1772739597328873000,9.613873046875,8.687503814697266,-4.506062984466553,-0.6269533634185791
1772739597348951300,9.633951416015625,8.68568229675293,-4.509613990783691,-0.6266518235206604
1772739597358966300,9.64396630859375,8.682564735412598,-4.516158580780029,-0.6227188110351562
1772739597369013200,9.65401318359375,8.680356979370117,-4.520651817321777,-0.6208900213241577
1772739597379034000,9.6640341796875,8.677556991577148,-4.5262322425842285,-0.6193698048591614
1772739597389096400,9.674096435546875,8.674205780029297,-4.532917499542236,-0.6174189448356628
1772739597399101000,9.684100830078124,8.672953605651855,-4.535356521606445,-0.6170963048934937
1772739597409462500,9.694462646484375,8.66740608215332,-4.546064853668213,-0.6162402629852295
1772739597419159800,9.704159912109375,8.664741516113281,-4.550835609436035,-0.6184998750686646
1772739597429823700,9.71482373046875,8.664214134216309,-4.551580905914307,-0.6203991174697876
1772739597451733800,9.736733642578125,8.654946327209473,-4.568246364593506,-0.6272287368774414
1772739597469378800,9.75437890625,8.64736270904541,-4.582265377044678,-0.6295704245567322
1772739597479381800,9.7643818359375,8.64334487915039,-4.589980602264404,-0.628542959690094
1772739597489425700,9.77442578125,8.6387939453125,-4.598751544952393,-0.6269915103912354
1772739597499438300,9.784438232421875,8.633810043334961,-4.608302116394043,-0.6255094408988953
1772739597509827000,9.7948271484375,8.632085800170898,-4.611691951751709,-0.6243171691894531
1772739597521570300,9.8065703125,8.624387741088867,-4.62642240524292,-0.621732771396637
1772739597531618000,9.8166181640625,8.617101669311523,-4.640091419219971,-0.6208882331848145
1772739597551698700,9.83669873046875,8.604063987731934,-4.664444446563721,-0.6192198395729065
1772739597561685800,9.846685791015625,8.59689998626709,-4.6780314445495605,-0.6162156462669373
1772739597571717000,9.856717041015624,8.593146324157715,-4.685449123382568,-0.612208366394043
1772739597581716200,9.86671630859375,8.589709281921387,-4.692195892333984,-0.608755886554718
1772739597592376300,9.877376220703125,8.58604907989502,-4.699172019958496,-0.6065723299980164
1772739597601773600,9.886773681640625,8.584891319274902,-4.701422214508057,-0.6055290102958679
1772739597613714400,9.89871435546875,8.581243515014648,-4.70814847946167,-0.6049631237983704
1772739597621852400,9.906852294921874,8.580248832702637,-4.71004581451416,-0.6043079495429993
1772739597631906000,9.916906005859374,8.579389572143555,-4.711423873901367,-0.6057615876197815
1772739597651955500,9.93695556640625,8.582578659057617,-4.705357074737549,-0.6077396273612976
1772739597661960400,9.94696044921875,8.586143493652344,-4.698561191558838,-0.609968900680542
1772739597672009200,9.95700927734375,8.58924388885498,-4.693062782287598,-0.6086384057998657
1772739597681996300,9.966996337890626,8.5921049118042,-4.687952995300293,-0.6076337099075317
1772739597692027000,9.97702685546875,8.594637870788574,-4.683406829833984,-0.6068747639656067
1772739597702042400,9.98704248046875,8.596549987792969,-4.680048942565918,-0.6056898236274719
1772739597712402200,9.997402099609374,8.597845077514648,-4.677962779998779,-0.6034102439880371
1772739597722090500,10.007090576171874,8.598396301269531,-4.677038192749023,-0.6027311682701111
1772739597732127000,10.017126953125,8.59849739074707,-4.676815509796143,-0.6030110716819763
1772739597742129200,10.027129150390625,8.597023010253906,-4.67964506149292,-0.6020895838737488
1772739597752789000,10.0377890625,8.596315383911133,-4.680831432342529,-0.6029659509658813
1772739597762182400,10.047182373046875,8.595309257507324,-4.682673454284668,-0.6030044555664062
1772739597774699500,10.059699462890626,8.595658302307129,-4.6819844245910645,-0.603380560874939
1772739597792307500,10.077307373046875,8.59724235534668,-4.679161548614502,-0.6027095317840576
1772739597802302700,10.087302734375,8.597514152526855,-4.678619861602783,-0.6030439138412476
1772739597812653600,10.097653564453125,8.597416877746582,-4.679045677185059,-0.6011252999305725
1772739597822353400,10.107353515625,8.596851348876953,-4.680114269256592,-0.600884199142456
1772739597832399400,10.1173994140625,8.596341133117676,-4.6810173988342285,-0.6011458039283752
1772739597842394600,10.12739453125,8.595942497253418,-4.681846618652344,-0.6003881096839905
1772739597862440700,10.147440673828125,8.593525886535645,-4.686985492706299,-0.5948694944381714
1772739597872490200,10.157490234375,8.592700004577637,-4.688897609710693,-0.5917233228683472
1772739597882476300,10.167476318359375,8.592461585998535,-4.689950942993164,-0.5868237018585205
1772739597892515800,10.177515869140626,8.592612266540527,-4.689879417419434,-0.5851837396621704
1772739597902641200,10.18764111328125,8.592144966125488,-4.691956520080566,-0.5753138065338135
1772739597913492200,10.1984921875,8.59261703491211,-4.691462993621826,-0.5722853541374207
1772739597922583600,10.20758349609375,8.593685150146484,-4.689995765686035,-0.5682427287101746
1772739597934250000,10.21925,8.594124794006348,-4.689718246459961,-0.5638720393180847
1772739597952701200,10.237701171875,8.591362953186035,-4.695592880249023,-0.5570303797721863
1772739597972722400,10.257722412109375,8.590024948120117,-4.69791841506958,-0.5580586194992065
1772739597982726100,10.26772607421875,8.589486122131348,-4.698810577392578,-0.5588306784629822
1772739597992787200,10.277787109375,8.589825630187988,-4.697949409484863,-0.5608476400375366
1772739598002783500,10.287783447265625,8.590350151062012,-4.696791172027588,-0.562516987323761
1772739598013123300,10.298123291015624,8.590890884399414,-4.695518493652344,-0.5648813843727112
1772739598022817000,10.307817138671876,8.59158706665039,-4.69403076171875,-0.5666530132293701
1772739598032869000,10.317869140625,8.591711044311523,-4.693471908569336,-0.5694072842597961
1772739598042880300,10.32788037109375,8.590898513793945,-4.6945343017578125,-0.5728887319564819
1772739598052917200,10.337917236328124,8.589011192321777,-4.6971869468688965,-0.5794019103050232
1772739598073599500,10.358599609375,8.587615966796875,-4.698544979095459,-0.5889968276023865
1772739598082999000,10.3679990234375,8.587385177612305,-4.698396682739258,-0.5935191512107849
1772739598095513300,10.380513427734375,8.587408065795898,-4.698098659515381,-0.5955451726913452
1772739598103086000,10.388086181640626,8.586807250976562,-4.698691368103027,-0.5995216369628906
1772739598113457700,10.398457763671875,8.586368560791016,-4.698507308959961,-0.6072014570236206
1772739598123150000,10.408150146484376,8.586647987365723,-4.697463035583496,-0.6113211512565613
1772739598133191200,10.418191162109375,8.587117195129395,-4.696011066436768,-0.6158574819564819
1772739598143223000,10.42822314453125,8.586389541625977,-4.696934700012207,-0.6189553737640381
1772739598153266000,10.438265869140626,8.58523941040039,-4.69871711730957,-0.6213858127593994
1772739598163270000,10.448269775390624,8.584227561950684,-4.700116157531738,-0.6247676014900208
1772739598173313800,10.458313720703124,8.582627296447754,-4.702455520629883,-0.6291365623474121
1772739598183337000,10.4683369140625,8.581485748291016,-4.7038044929504395,-0.6345975399017334
1772739598193397000,10.47839697265625,8.581719398498535,-4.702761650085449,-0.6391491889953613
1772739598203387400,10.488387451171874,8.582115173339844,-4.701327323913574,-0.6443708539009094
1772739598213741000,10.498740966796875,8.582905769348145,-4.699414253234863,-0.647781491279602
1772739598223440400,10.5084404296875,8.583707809448242,-4.697480201721191,-0.6511750817298889
1772739598234106400,10.5191064453125,8.58405876159668,-4.6964240074157715,-0.6541512608528137
1772739598243506000,10.528505859375,8.584125518798828,-4.696142673492432,-0.6553045511245728
1772739598255137300,10.54013720703125,8.58253002166748,-4.69896936416626,-0.6559401750564575
1772739598273624600,10.55862451171875,8.578892707824707,-4.705894470214844,-0.6538763046264648
1772739598283622700,10.56862255859375,8.578458786010742,-4.7065205574035645,-0.6550501585006714
1772739598293665500,10.57866552734375,8.571168899536133,-4.720007419586182,-0.653445303440094
1772739598303676200,10.58867626953125,8.566177368164062,-4.72910737991333,-0.6531043648719788
1772739598314050800,10.59905078125,8.560601234436035,-4.7392730712890625,-0.6525249481201172
1772739598323754800,10.608754638671876,8.55842399597168,-4.7431960105896,-0.6525892019271851
1772739598333798700,10.618798583984375,8.549396514892578,-4.75938081741333,-0.653080940246582
1772739598343818500,10.628818603515626,8.544106483459473,-4.768789291381836,-0.6536723971366882
1772739598353872600,10.63887255859375,8.542235374450684,-4.772125720977783,-0.653759777545929
1772739598363867100,10.6488671875,8.537288665771484,-4.780941963195801,-0.6539760231971741
1772739598373920500,10.65892041015625,8.530110359191895,-4.793634414672852,-0.6547384858131409
1772739598383930600,10.6689306640625,8.528935432434082,-4.795739650726318,-0.654624342918396
1772739598394599700,10.679599609375,8.522114753723145,-4.808161735534668,-0.6523280739784241
1772739598403990800,10.68899072265625,8.517949104309082,-4.81570291519165,-0.6511074304580688
1772739598416844000,10.701843994140624,8.511115074157715,-4.828145980834961,-0.6483323574066162
1772739598434127400,10.71912744140625,8.504298210144043,-4.840714454650879,-0.644040048122406
1772739598444142800,10.729142822265626,8.492107391357422,-4.862255573272705,-0.6426331400871277
1772739598454205400,10.739205322265626,8.48391056060791,-4.876440525054932,-0.6434105634689331
1772739598464217900,10.7492177734375,8.475443840026855,-4.8908867835998535,-0.6453507542610168
1772739598494374700,10.779374755859376,8.45110034942627,-4.931306838989258,-0.656888484954834
1772739598504374800,10.789374755859376,8.443556785583496,-4.943908214569092,-0.6591717004776001
1772739598514769700,10.799769775390626,8.436538696289062,-4.9553351402282715,-0.6632090210914612
1772739598524476000,10.809475830078124,8.43369197845459,-4.95994758605957,-0.6649331450462341
1772739598534541000,10.819541015625,8.423676490783691,-4.976229190826416,-0.6702328324317932
1772739598544562400,10.8295625,8.420461654663086,-4.981408596038818,-0.6721442341804504
1772739598555257900,10.8402578125,8.413007736206055,-4.99323844909668,-0.6776843070983887
1772739598564651300,10.8496513671875,8.406099319458008,-5.0040059089660645,-0.6839687824249268
1772739598584731000,10.86973095703125,8.398198127746582,-5.015649795532227,-0.6956456303596497
1772739598594808600,10.87980859375,8.400358200073242,-5.011347770690918,-0.7005506753921509
1772739598604812800,10.889812744140626,8.40319538116455,-5.00628137588501,-0.7027365565299988
1772739598615194600,10.900194580078125,8.40711784362793,-4.9995880126953125,-0.7034710645675659
1772739598624882200,10.909882080078125,8.410928726196289,-4.993304252624512,-0.7025521397590637
1772739598634951200,10.919951171875,8.414249420166016,-4.98787784576416,-0.7013280987739563
1772739598644962600,10.929962646484375,8.415987968444824,-4.985110282897949,-0.7001549601554871
1772739598655007700,10.9400078125,8.415730476379395,-4.985894203186035,-0.6976659297943115
1772739598665023200,10.950023193359375,8.414281845092773,-4.988622188568115,-0.6956254839897156
1772739598675082200,10.960082275390626,8.41179370880127,-4.99276065826416,-0.6960259079933167
1772739598695115300,10.980115234375,8.406599044799805,-5.000938892364502,-0.7000566124916077
1772739598705127400,10.99012744140625,8.404594421386719,-5.004427433013916,-0.69920814037323
1772739598716110000,11.001110107421875,8.40507698059082,-5.003828525543213,-0.6976935863494873
1772739598725186800,11.010186767578125,8.406766891479492,-5.001123428344727,-0.6967233419418335
1772739598737693700,11.022693603515625,8.410839080810547,-4.994814872741699,-0.6928169131278992
1772739598745240600,11.030240478515625,8.413926124572754,-4.989981174468994,-0.6901587247848511
1772739598755290000,11.0402900390625,8.417534828186035,-4.984381198883057,-0.6866108179092407
1772739598765284900,11.050284912109374,8.419841766357422,-4.980768203735352,-0.6845389008522034
1772739598775313200,11.060313232421874,8.427870750427246,-4.9676008224487305,-0.6814115643501282
1772739598785325300,11.0703251953125,8.432616233825684,-4.959545135498047,-0.6813846230506897
1772739598805371000,11.090370849609375,8.441878318786621,-4.943487167358398,-0.6833891272544861
1772739598815730000,11.10072998046875,8.44693374633789,-4.934699058532715,-0.6844255328178406
1772739598825419800,11.110419677734376,8.448554039001465,-4.931746482849121,-0.6857086420059204
1772739598835466200,11.12046630859375,8.454145431518555,-4.9220123291015625,-0.6867421865463257
1772739598845476400,11.130476318359374,8.461133003234863,-4.909897327423096,-0.6873980164527893
1772739598855511600,11.140511474609376,8.470954895019531,-4.893160820007324,-0.6857766509056091
1772739598865521400,11.150521484375,8.474507331848145,-4.887277126312256,-0.6838374137878418
1772739598876173800,11.161173828125,8.476573944091797,-4.883790493011475,-0.6831322312355042
1772739598885558300,11.170558349609376,8.480710983276367,-4.876425266265869,-0.6844032406806946
1772739598905630000,11.1906298828125,8.486708641052246,-4.864940166473389,-0.6917443871498108
1772739598915993300,11.200993408203125,8.488273620605469,-4.861997127532959,-0.6932355165481567
1772739598925673000,11.2106728515625,8.488723754882812,-4.861170291900635,-0.6935338973999023
1772739598935703600,11.22070361328125,8.489884376525879,-4.858480453491211,-0.6981583833694458
1772739598945703700,11.23070361328125,8.489880561828613,-4.857267379760742,-0.7065982818603516
1772739598955763500,11.240763427734375,8.489126205444336,-4.857729911804199,-0.7124552130699158
1772739598965748200,11.250748291015626,8.488329887390137,-4.858310699462891,-0.7179599404335022
1772739598975774000,11.26077392578125,8.4881010055542,-4.858347415924072,-0.720416247844696
1772739598985767000,11.270766845703125,8.487735748291016,-4.8588175773620605,-0.7215468287467957
1772739598995805200,11.28080517578125,8.485668182373047,-4.862313270568848,-0.722313642501831
1772739599016133600,11.301133544921875,8.483181953430176,-4.8673176765441895,-0.7177892327308655
1772739599025838800,11.3108388671875,8.483652114868164,-4.866929054260254,-0.714871883392334
1772739599036533200,11.321533203125,8.485281944274902,-4.864680767059326,-0.7108123302459717
1772739599046345200,11.33134521484375,8.487062454223633,-4.861748695373535,-0.7096191048622131
1772739599058509800,11.343509765625,8.490467071533203,-4.85650110244751,-0.7048040628433228
1772739599066049000,11.351049072265624,8.49081039428711,-4.855932712554932,-0.7045879364013672
1772739599076101400,11.361101318359376,8.490938186645508,-4.856209754943848,-0.7011297941207886
1772739599086098400,11.371098388671875,8.490067481994629,-4.857896327972412,-0.6999843120574951
1772739599096180500,11.381180419921876,8.489653587341309,-4.858748435974121,-0.6990911960601807
1772739599106201900,11.391201904296874,8.489744186401367,-4.858500003814697,-0.6997299790382385
1772739599136375600,11.42137548828125,8.483814239501953,-4.8708176612854,-0.685867428779602
1772739599146387500,11.431387451171876,8.481111526489258,-4.876297950744629,-0.6803354024887085
1772739599156483300,11.4414833984375,8.48011302947998,-4.87829065322876,-0.678489625453949
1772739599166476300,11.451476318359376,8.473298072814941,-4.891667366027832,-0.6672319173812866
1772739599176557000,11.46155712890625,8.469278335571289,-4.8995890617370605,-0.6600977182388306
1772739599186573800,11.47157373046875,8.464694023132324,-4.908243179321289,-0.6545957922935486
1772739599197271000,11.48227099609375,8.462738990783691,-4.91180419921875,-0.6531591415405273
1772739599206668300,11.491668212890625,8.454401016235352,-4.927140712738037,-0.6455803513526917
1772739599218690300,11.503690185546875,8.448220252990723,-4.938454627990723,-0.6400259137153625
1772739599236878300,11.52187841796875,8.438048362731934,-4.956398963928223,-0.635486364364624
1772739599246919700,11.531919677734376,8.432633399963379,-4.9658918380737305,-0.6332452893257141
1772739599257103600,11.542103515625,8.425859451293945,-4.977508068084717,-0.6322180032730103
1772739599266992000,11.5519921875,8.41933536529541,-4.988419055938721,-0.6331304311752319
1772739599277047300,11.56204736328125,8.41390609741211,-4.997441291809082,-0.6341549754142761
1772739599287086300,11.57208642578125,8.411426544189453,-5.001619338989258,-0.6341084837913513
1772739599297152800,11.58215283203125,8.408364295959473,-5.006625652313232,-0.6352246999740601
1772739599307161300,11.592161376953126,8.405317306518555,-5.011811256408691,-0.634649932384491
1772739599317527600,11.602527587890625,8.403975486755371,-5.0141825675964355,-0.6336790919303894
1772739599337344000,11.622343994140625,8.400274276733398,-5.021134853363037,-0.6276770234107971
1772739599347365400,11.632365478515625,8.397760391235352,-5.025693416595459,-0.6248388886451721
1772739599358012400,11.643012451171876,8.394407272338867,-5.031552314758301,-0.6227337121963501
1772739599367415300,11.652415283203124,8.391077995300293,-5.0371904373168945,-0.6220187544822693
1772739599379974400,11.664974365234375,8.385933876037598,-5.045891761779785,-0.6208678483963013
1772739599387506700,11.672506591796875,8.383049964904785,-5.050766468048096,-0.6201720237731934
1772739599397533000,11.682532958984375,8.37917709350586,-5.056937217712402,-0.6222253441810608
1772739599407530000,11.692530029296876,8.374459266662598,-5.064632892608643,-0.6231508851051331
1772739599417901000,11.702901123046875,8.368578910827637,-5.0742363929748535,-0.6240198016166687
1772739599437602000,11.72260205078125,8.35630989074707,-5.093780994415283,-0.6291847825050354
1772739599447602200,11.732602294921875,8.353875160217285,-5.097567081451416,-0.6308571100234985
1772739599457661000,11.742660888671875,8.344358444213867,-5.112499713897705,-0.6359382271766663
1772739599467679000,11.752678955078125,8.338471412658691,-5.121574878692627,-0.6401258707046509
1772739599477737000,11.762737060546876,8.333503723144531,-5.129075050354004,-0.6447378993034363
1772739599487762000,11.772761962890625,8.33002758026123,-5.134189128875732,-0.6489445567131042
1772739599497843200,11.78284326171875,8.329052925109863,-5.135299205780029,-0.6526720523834229
1772739599507853000,11.79285302734375,8.330162048339844,-5.132913589477539,-0.6572590470314026
1772739599518829300,11.803829345703125,8.331927299499512,-5.1293110847473145,-0.6629787683486938
1772739599548052500,11.833052490234374,8.337431907653809,-5.118763446807861,-0.675192654132843
1772739599558105000,11.84310498046875,8.340249061584473,-5.113701343536377,-0.6787496209144592
1772739599568129300,11.85312939453125,8.342554092407227,-5.10963773727417,-0.6810168027877808
1772739599578205000,11.863204833984375,8.343772888183594,-5.107513427734375,-0.6820278763771057
1772739599588207900,11.873207763671875,8.345073699951172,-5.105175495147705,-0.6836034655570984
1772739599598255400,11.88325537109375,8.345600128173828,-5.104226589202881,-0.6842702627182007
1772739599608289800,11.893289794921875,8.345541954040527,-5.104213714599609,-0.6850777268409729
1772739599618669300,11.90366943359375,8.34544563293457,-5.104400634765625,-0.6848491430282593
1772739599628356600,11.913356689453124,8.345821380615234,-5.103813171386719,-0.6846479177474976
1772739599658539300,11.943539306640625,8.347555160522461,-5.101014614105225,-0.6843782067298889
1772739599668548000,11.953548095703125,8.34678840637207,-5.1019439697265625,-0.6867964267730713
1772739599679208400,11.96420849609375,8.345243453979492,-5.104269504547119,-0.6882843375205994
1772739599688631000,11.973631103515626,8.344890594482422,-5.104736804962158,-0.6890988349914551
1772739599701182500,11.986182373046875,8.342826843261719,-5.107518672943115,-0.6934561133384705
1772739599708742000,11.993741943359375,8.342336654663086,-5.107967853546143,-0.6960437297821045
1772739599719107600,12.004107666015624,8.341650009155273,-5.108590602874756,-0.6996882557868958
1772739599728831200,12.013831298828125,8.341012001037598,-5.1092305183410645,-0.7026174068450928
1772739599748904200,12.033904296875,8.340462684631348,-5.109605312347412,-0.7064105272293091
1772739599758957300,12.043957275390625,8.338531494140625,-5.112489700317383,-0.7083290219306946
1772739599768992800,12.05399267578125,8.33713150024414,-5.114741802215576,-0.7085556983947754
1772739599779060500,12.064060546875,8.336389541625977,-5.115877151489258,-0.7090862393379211
1772739599789067000,12.07406689453125,8.33452033996582,-5.119193077087402,-0.7071244120597839
1772739599799115300,12.084115234375,8.33423900604248,-5.119952201843262,-0.7049360871315002
1772739599809132300,12.09413232421875,8.333978652954102,-5.120616912841797,-0.7031918168067932
1772739599819515100,12.10451513671875,8.33366584777832,-5.121455669403076,-0.7007893919944763
1772739599829208800,12.114208740234375,8.334219932556152,-5.120555400848389,-0.7007787823677063
1772739599869392000,12.154391845703126,8.329188346862793,-5.129742622375488,-0.693374514579773
1772739599879447800,12.16444775390625,8.325864791870117,-5.1352458000183105,-0.692538321018219
1772739599889467600,12.174467529296875,8.325506210327148,-5.135841369628906,-0.6924434304237366
1772739599899535000,12.18453515625,8.325484275817871,-5.136017322540283,-0.6913967728614807
1772739599909536300,12.194536376953126,8.324492454528809,-5.137487888336182,-0.6924123764038086
1772739599919892500,12.204892578125,8.325189590454102,-5.136351108551025,-0.6924678683280945
1772739599929602300,12.214602294921875,8.324182510375977,-5.137909412384033,-0.6930064558982849
1772739599949657600,12.23465771484375,8.321113586425781,-5.1427001953125,-0.6943381428718567
1772739599959708400,12.24470849609375,8.31728744506836,-5.1487274169921875,-0.6954973340034485
1772739599969751000,12.2547509765625,8.313506126403809,-5.1543965339660645,-0.6987224221229553
1772739599979817700,12.264817626953125,8.311756134033203,-5.157018184661865,-0.7001787424087524
1772739599989817900,12.27481787109375,8.31136703491211,-5.157479763031006,-0.7014161944389343
1772739600000471000,12.285470947265624,8.309891700744629,-5.159812927246094,-0.701725423336029
1772739600009891000,12.29489111328125,8.31141471862793,-5.157299041748047,-0.7021675109863281
1772739600022785500,12.30778564453125,8.311470985412598,-5.1574249267578125,-0.7005769610404968
1772739600030248200,12.315248291015624,8.30495834350586,-5.168868064880371,-0.6934458017349243
1772739600040051700,12.3250517578125,8.301270484924316,-5.175589561462402,-0.6874347925186157
1772739600060189400,12.345189453125,8.284601211547852,-5.203885555267334,-0.6747884750366211
1772739600070177800,12.355177734375,8.26974868774414,-5.227975368499756,-0.6707543730735779
1772739600080243200,12.3652431640625,8.263273239135742,-5.238368988037109,-0.6694692969322205
1772739600090260200,12.37526025390625,8.239803314208984,-5.275771141052246,-0.6650415658950806
1772739600100356400,12.3853564453125,8.19890022277832,-5.339840888977051,-0.6591947078704834
1772739600110353400,12.395353515625,8.172581672668457,-5.380064010620117,-0.6589514017105103
1772739600120735200,12.4057353515625,8.157645225524902,-5.4026312828063965,-0.6593875885009766
1772739600130444000,12.415444091796875,8.137894630432129,-5.431037425994873,-0.669987678527832
1772739600140548000,12.425548095703125,8.130545616149902,-5.440964221954346,-0.6786293387413025
1772739600150542800,12.43554296875,8.128861427307129,-5.443037033081055,-0.6821664571762085
1772739600182328000,12.467328125,8.130620956420898,-5.430083751678467,-0.7599876523017883
1772739600190743000,12.475742919921874,8.136713027954102,-5.417586326599121,-0.7836081385612488
1772739600200810500,12.485810546875,8.143927574157715,-5.402233123779297,-0.814075767993927
1772739600210856400,12.4958564453125,8.135847091674805,-5.4084858894348145,-0.8524458408355713
1772739600221244400,12.506244384765624,8.10084342956543,-5.448231220245361,-0.9292479157447815
1772739600230951700,12.51595166015625,8.04240608215332,-5.5113525390625,-1.0559784173965454
1772739600241020400,12.5260205078125,7.970475196838379,-5.580316543579102,-1.2255522012710571
1772739600251071000,12.536071044921876,7.939661502838135,-5.607365131378174,-1.2998542785644531
1772739600281202000,12.566201904296875,7.815759658813477,-5.536032199859619,-2.1063334941864014
1772739600291200000,12.576199951171875,7.767880439758301,-5.506330966949463,-2.347500801086426
1772739600301260300,12.58626025390625,7.744686603546143,-5.494557857513428,-2.4495017528533936
1772739600311239400,12.596239501953125,7.664836406707764,-5.405004978179932,-2.8647167682647705
1772739600322181000,12.60718115234375,7.616087913513184,-5.315042972564697,-3.1489548683166504
1772739600331280600,12.61628076171875,7.576931953430176,-5.228631496429443,-3.379631280899048
1772739600343797500,12.628797607421875,7.50919246673584,-5.116466522216797,-3.688384532928467
1772739600351327500,12.636327392578124,7.481958866119385,-5.129054546356201,-3.7260541915893555
1772739600361352700,12.646352783203126,7.346660614013672,-5.0388641357421875,-4.099612236022949
1772739600391397600,12.676397705078125,7.097459316253662,-4.8565754890441895,-4.712761402130127
1772739600401432600,12.6864326171875,7.062687873840332,-4.8358612060546875,-4.785736083984375
1772739600411454000,12.696453857421876,6.9815144538879395,-4.811023712158203,-4.927768230438232
1772739600421812500,12.7068125,6.904913425445557,-4.798697471618652,-5.046291351318359
1772739600431488800,12.71648876953125,6.797281265258789,-4.807868957519531,-5.181868076324463
1772739600441514000,12.726513916015625,6.7407708168029785,-4.825870990753174,-5.238642692565918
1772739600451541200,12.736541259765625,6.719080448150635,-4.834573268890381,-5.258445739746094
1772739600461582600,12.74658251953125,6.680889129638672,-4.861793041229248,-5.28195858001709
1772739600471559000,12.756558837890625,6.656203269958496,-4.895317077636719,-5.282160758972168
1772739600491603000,12.77660302734375,6.64780855178833,-5.005928039550781,-5.188228607177734
1772739600503289300,12.788289306640625,6.669188022613525,-5.057872295379639,-5.1098198890686035
1772739600511641000,12.79664111328125,6.691254138946533,-5.094015598297119,-5.044651985168457
1772739600521979400,12.8069794921875,6.716907024383545,-5.150161266326904,-4.9527153968811035
1772739600532732700,12.817732666015624,6.7403130531311035,-5.222294807434082,-4.844193458557129
1772739600542800400,12.82780029296875,6.751352787017822,-5.249856948852539,-4.79881477355957
1772739600552770600,12.8377705078125,6.7823710441589355,-5.384824275970459,-4.601466178894043
1772739600562788400,12.847788330078124,6.803466796875,-5.471678733825684,-4.4658684730529785
1772739600572803000,12.857802978515625,6.818299293518066,-5.567522048950195,-4.322484970092773
1772739600592820700,12.87782080078125,6.80841588973999,-5.826275825500488,-3.9837636947631836
1772739600602836700,12.887836669921874,6.785507678985596,-5.984436988830566,-3.7833571434020996
1772739600612839700,12.897839599609375,6.788638591766357,-6.041565895080566,-3.685683012008667
1772739600623177700,12.908177734375,6.727445125579834,-6.3167266845703125,-3.3182601928710938
1772739600632844500,12.917844482421875,6.724288463592529,-6.45736026763916,-3.0425055027008057
1772739600643457000,12.92845703125,6.651275157928467,-6.636936187744141,-2.8074891567230225
1772739600652858600,12.937858642578124,6.630696773529053,-6.693480491638184,-2.720583438873291
1772739600665375700,12.950375732421875,6.465561389923096,-6.992988586425781,-2.3377370834350586
1772739600672883200,12.95788330078125,6.406702995300293,-7.101141452789307,-2.1675639152526855
1772739600682893800,12.967893798828126,6.332852840423584,-7.229127407073975,-1.9506638050079346
1772739600703012600,12.9880126953125,6.2573041915893555,-7.389464855194092,-1.5531728267669678
1772739600712983800,12.99798388671875,6.266268730163574,-7.416475296020508,-1.378466010093689
1772739600723319300,13.0083193359375,6.303323268890381,-7.414602279663086,-1.2092063426971436
1772739600733030400,13.018030517578126,6.352569580078125,-7.396012306213379,-1.0555837154388428
1772739600743074000,13.028073974609375,6.378084182739258,-7.3841423988342285,-0.9822735786437988
1772739600753048000,13.038048095703125,6.446857452392578,-7.348814010620117,-0.7767580151557922
1772739600763067600,13.048067626953125,6.467784881591797,-7.341757774353027,-0.6608578562736511
1772739600773063000,13.05806298828125,6.465943336486816,-7.351353645324707,-0.5653101205825806
1772739600783107300,13.068107421875,6.451853275299072,-7.369568347930908,-0.48316141963005066
1772739600793095700,13.078095703125,6.436330795288086,-7.387515544891357,-0.4106745719909668
1772739600813124900,13.098124755859375,6.4110798835754395,-7.415213108062744,-0.28818273544311523
1772739600825063700,13.110063720703126,6.407189846038818,-7.419635772705078,-0.2594605088233948
1772739600833189000,13.118189208984376,6.380290508270264,-7.444794178009033,-0.19320113956928253
1772739600843218000,13.128218017578124,6.361852645874023,-7.461483001708984,-0.15331658720970154
1772739600853246500,13.13824658203125,6.344407081604004,-7.476978302001953,-0.1169692650437355
1772739600863287300,13.148287353515625,6.325429439544678,-7.493471145629883,-0.08498480916023254
1772739600873261800,13.15826171875,6.298648357391357,-7.516225814819336,-0.06134878844022751
1772739600883294700,13.168294677734375,6.260863304138184,-7.54781436920166,-0.04980652779340744
1772739600893310000,13.17831005859375,6.217330455780029,-7.583701133728027,-0.05173807963728905
1772739600903352600,13.1883525390625,6.183462142944336,-7.611177921295166,-0.07187310606241226
1772739600913333200,13.198333251953125,6.169194221496582,-7.622622489929199,-0.08403174579143524
1772739600923667700,13.208667724609375,6.158858776092529,-7.630526542663574,-0.11802519857883453
1772739600933375500,13.21837548828125,6.167058944702148,-7.623260021209717,-0.15391571819782257
1772739600943418600,13.228418701171876,6.188714504241943,-7.604772567749023,-0.19402006268501282
1772739600953390300,13.238390380859375,6.187632083892822,-7.603600025177002,-0.26242053508758545
1772739600964019700,13.249019775390625,6.264525890350342,-7.537164211273193,-0.3424421548843384
1772739600973408000,13.258407958984375,6.31254243850708,-7.49452543258667,-0.3928022086620331
1772739600985918200,13.270918212890624,6.3818769454956055,-7.431896686553955,-0.45712214708328247
1772739600993440300,13.278440185546875,6.4123735427856445,-7.402363300323486,-0.5068284273147583
1772739601003461000,13.288461181640624,6.4905266761779785,-7.331415176391602,-0.5420452952384949
1772739601023823600,13.30882373046875,6.6329851150512695,-7.20099401473999,-0.5653179883956909
1772739601033506300,13.31850634765625,6.748522758483887,-7.093433856964111,-0.5576929450035095
1772739601043537400,13.328537353515625,6.915553569793701,-6.932929992675781,-0.5291492342948914
1772739601053549300,13.33854931640625,6.955178737640381,-6.893691062927246,-0.5224123597145081
1772739601063597600,13.34859765625,7.068737506866455,-6.779626369476318,-0.48992490768432617
1772739601073592600,13.358592529296875,7.092533588409424,-6.755246162414551,-0.48271164298057556
1772739601083623000,13.368622802734375,7.168107986450195,-6.67692232131958,-0.45533788204193115
1772739601093624000,13.3786240234375,7.185111999511719,-6.659189224243164,-0.44693654775619507
1772739601103672800,13.3886728515625,7.255654335021973,-6.583654403686523,-0.425862193107605
1772739601113646600,13.398646484375,7.300881862640381,-6.534267425537109,-0.41335225105285645
1772739601133695000,13.418695068359375,7.389429569244385,-6.435116291046143,-0.39497750997543335
1772739601145373200,13.430373291015625,7.4078049659729,-6.4143500328063965,-0.3884931206703186
1772739601153726700,13.438726806640625,7.4477362632751465,-6.368255138397217,-0.3833399713039398
1772739601163729400,13.4487294921875,7.462347984313965,-6.351029396057129,-0.3849465548992157
1772739601173725700,13.4587255859375,7.468171119689941,-6.343937873840332,-0.3889259696006775
1772739601183760600,13.4687607421875,7.472879886627197,-6.338518142700195,-0.38685354590415955
1772739601193730600,13.47873046875,7.476590156555176,-6.333981990814209,-0.38944122195243835
1772739601203749000,13.4887490234375,7.479805946350098,-6.330887317657471,-0.3778396248817444
1772739601213748000,13.498748046875,7.478890895843506,-6.3314948081970215,-0.3856815695762634
1772739601224108500,13.509108642578125,7.477707862854004,-6.333226203918457,-0.3801601827144623
1772739601253823000,13.538822998046875,7.495932102203369,-6.31309700012207,-0.3552490174770355
1772739601263863300,13.54886328125,7.554168224334717,-6.245258808135986,-0.3188660442829132
1772739601273848800,13.558848876953125,7.57544469833374,-6.219849586486816,-0.31064268946647644
1772739601284495000,13.5694951171875,7.640996932983398,-6.139932155609131,-0.2946031391620636
1772739601293900000,13.578900146484376,7.756216526031494,-5.994366645812988,-0.2811681926250458
1772739601306422300,13.59142236328125,7.824877738952637,-5.905089855194092,-0.26758068799972534
1772739601313961500,13.59896142578125,7.847167491912842,-5.875480651855469,-0.26661360263824463
1772739601324316400,13.60931640625,7.877604007720947,-5.835206031799316,-0.25320056080818176
1772739601354076400,13.639076416015625,7.869966506958008,-5.84563684463501,-0.25011077523231506
1772739601364115700,13.64911572265625,7.861121654510498,-5.857573986053467,-0.24895255267620087
1772739601374137000,13.65913720703125,7.859807968139648,-5.859474182128906,-0.24567192792892456
1772739601384200400,13.669200439453125,7.8636860847473145,-5.8543829917907715,-0.24297143518924713
1772739601394195500,13.679195556640625,7.879400253295898,-5.83343505859375,-0.2376619279384613
1772739601404231000,13.68923095703125,7.891445636749268,-5.817209243774414,-0.23570582270622253
1772739601414249500,13.69924951171875,7.90349006652832,-5.800550937652588,-0.24255232512950897
1772739601424616400,13.709616455078125,7.910034656524658,-5.7911224365234375,-0.2542573809623718
1772739601434303000,13.719302978515625,7.911032199859619,-5.789431095123291,-0.2616191506385803
1772739601444950500,13.729950439453125,7.9176506996154785,-5.779351711273193,-0.2833501994609833
1772739601466038000,13.7510380859375,7.935303688049316,-5.753651142120361,-0.3111751973628998
1772739601474453800,13.759453857421875,7.942622661590576,-5.743072986602783,-0.31974926590919495
1772739601484500700,13.769500732421875,7.9457526206970215,-5.738432884216309,-0.32525867223739624
1772739601494523100,13.779523193359376,7.958633899688721,-5.719898700714111,-0.3365986943244934
1772739601504582000,13.789581787109375,7.962273120880127,-5.714624881744385,-0.34008389711380005
1772739601514584600,13.79958447265625,7.999162673950195,-5.662559509277344,-0.34526482224464417
1772739601524940000,13.80993994140625,8.011553764343262,-5.6448588371276855,-0.34778323769569397
1772739601544764200,13.82976416015625,8.084776878356934,-5.53934907913208,-0.34984102845191956
1772739601564824600,13.849824462890625,8.197442054748535,-5.370251655578613,-0.36432579159736633
1772739601584918300,13.869918212890624,8.201275825500488,-5.364500999450684,-0.36276158690452576
1772739601605609500,13.890609375,8.109932899475098,-5.497796535491943,-0.416678786277771
1772739601627928800,13.9129287109375,7.982200622558594,-5.677934169769287,-0.46467941999435425
1772739601635493600,13.92049365234375,7.930604457855225,-5.74873685836792,-0.47741732001304626
1772739601645197000,13.930197021484375,7.859374046325684,-5.845259189605713,-0.4832993745803833
1772739601665339600,13.950339599609375,7.816307067871094,-5.903811454772949,-0.46983635425567627
1772739601675348000,13.960347900390625,7.7995991706848145,-5.927465438842773,-0.44921940565109253
1772739601685401600,13.970401611328125,7.8035712242126465,-5.92367696762085,-0.4297875463962555
1772739601695435000,13.98043505859375,7.808021545410156,-5.9185709953308105,-0.4191805422306061
1772739601705509600,13.990509521484375,7.801770210266113,-5.92931604385376,-0.382074773311615
1772739601715512800,14.000512939453126,7.796044826507568,-5.937408447265625,-0.3731587827205658
1772739601725874400,14.01087451171875,7.727330207824707,-6.027207374572754,-0.3626523017883301
1772739601735593500,14.020593505859376,7.672939300537109,-6.096154689788818,-0.3650798201560974
1772739601745662200,14.030662109375,7.602537155151367,-6.1829352378845215,-0.3783247768878937
1772739601755678500,14.040678466796875,7.571671009063721,-6.220232963562012,-0.38585546612739563
1772739601775760000,14.060759765625,7.449541091918945,-6.366573810577393,-0.3761141300201416
1772739601787473000,14.072472900390625,7.425461769104004,-6.394464492797852,-0.37911856174468994
1772739601796080000,14.081080078125,7.351048946380615,-6.480016708374023,-0.37662968039512634
1772739601805880600,14.090880615234376,7.300213813781738,-6.537012577056885,-0.38045039772987366
1772739601815909600,14.10090966796875,7.240490913391113,-6.602644920349121,-0.3882882595062256
1772739601826302200,14.11130224609375,7.20977783203125,-6.635838985443115,-0.3938584625720978
1772739601835976200,14.12097607421875,7.1322150230407715,-6.718785285949707,-0.3997673988342285
1772739601846048000,14.131048095703125,7.086450099945068,-6.766702651977539,-0.4054001271724701
1772739601856069600,14.141069580078126,7.046492099761963,-6.807903289794922,-0.4120619297027588
1772739601866133000,14.151133056640624,7.028740406036377,-6.825848579406738,-0.4183075428009033
1772739601886300200,14.171300048828124,6.94227933883667,-6.912230014801025,-0.4429740905761719
1772739601896195300,14.1811953125,6.912505626678467,-6.940751075744629,-0.4622191786766052
1772739601906227700,14.191227783203125,6.898468971252441,-6.953646183013916,-0.47783175110816956
1772739601916228900,14.201228759765625,6.872917652130127,-6.977491855621338,-0.49800828099250793
1772739601927199500,14.212199462890625,6.868590354919434,-6.981027603149414,-0.5080456733703613
1772739601936276700,14.22127685546875,6.820224285125732,-7.027037143707275,-0.5250523686408997
1772739601948798500,14.233798583984376,6.807450771331787,-7.038202285766602,-0.5410401821136475
1772739601956342000,14.241342041015624,6.728155612945557,-7.111462116241455,-0.5739417672157288
1772739601986414800,14.271414794921874,6.614586353302002,-7.21197509765625,-0.6364376544952393
1772739601996421600,14.281421630859375,6.5722270011901855,-7.248607158660889,-0.6587181687355042
1772739602006476300,14.291476318359376,6.554507732391357,-7.263402938842773,-0.6721513867378235
1772739602016475400,14.301475341796875,6.541586875915527,-7.27388334274292,-0.6845771670341492
1772739602026822100,14.311822265625,6.538726806640625,-7.275868892669678,-0.6907827258110046
1772739602036525800,14.32152587890625,6.515676021575928,-7.2946624755859375,-0.7101020216941833
1772739602046573800,14.33157373046875,6.5111799240112305,-7.298007488250732,-0.7169491052627563
1772739602056594200,14.34159423828125,6.509243011474609,-7.297723770141602,-0.737139105796814
1772739602066629600,14.351629638671875,6.517459869384766,-7.2894487380981445,-0.7463441491127014
1772739602087310300,14.372310302734375,6.550865650177002,-7.258821964263916,-0.7523749470710754
1772739602096695300,14.3816953125,6.571264743804932,-7.240559101104736,-0.7504559755325317
1772739602108326700,14.39332666015625,6.5969390869140625,-7.217868328094482,-0.7437494397163391
1772739602116729000,14.40172900390625,6.612381935119629,-7.204432487487793,-0.736859142780304
1772739602127096300,14.412096435546875,6.625410556793213,-7.192617893218994,-0.7352335453033447
1772739602136776700,14.421776611328125,6.63281774520874,-7.186020374298096,-0.732959508895874
1772739602146798000,14.431798095703124,6.637134075164795,-7.181763172149658,-0.7356029748916626
1772739602156793900,14.4417939453125,6.638367176055908,-7.1807427406311035,-0.7344415187835693
1772739602166850600,14.4518505859375,6.639918804168701,-7.179281711578369,-0.734704852104187
1772739602186869500,14.471869384765625,6.630588054656982,-7.189393520355225,-0.7199485898017883
1772739602196899600,14.481899658203124,6.601617336273193,-7.217505931854248,-0.7047411203384399
1772739602206995200,14.4919951171875,6.582709312438965,-7.236848831176758,-0.6828945875167847
1772739602217015000,14.50201513671875,6.557940483093262,-7.260519027709961,-0.6698249578475952
1772739602227398000,14.51239794921875,6.527287006378174,-7.288751125335693,-0.6625804305076599
1772739602237141000,14.52214111328125,6.51645565032959,-7.2987565994262695,-0.6590431928634644
1772739602247826400,14.532826416015626,6.489072322845459,-7.3234052658081055,-0.6557914614677429
1772739602257241300,14.542241455078125,6.464756011962891,-7.3448381423950195,-0.6562459468841553
1772739602269793000,14.55479296875,6.4240241050720215,-7.380744457244873,-0.6533800363540649
1772739602287441700,14.572441650390624,6.40686559677124,-7.39511251449585,-0.659375786781311
1772739602297465300,14.58246533203125,6.403594017028809,-7.397686004638672,-0.6622808575630188
1772739602307530000,14.592530029296874,6.385335445404053,-7.413506984710693,-0.6616600751876831
1772739602317572000,14.602572021484375,6.348195552825928,-7.44516658782959,-0.6635624170303345
1772739602327969000,14.612968994140624,6.316150665283203,-7.472061634063721,-0.6670201420783997
1772739602337687000,14.62268701171875,6.2815937995910645,-7.501038551330566,-0.6681193709373474
1772739602347759600,14.632759521484376,6.245567321777344,-7.531740188598633,-0.660434365272522
1772739602357804000,14.642803955078126,6.204141616821289,-7.566772937774658,-0.6503495573997498
1772739602367883800,14.6528837890625,6.154765605926514,-7.607714653015137,-0.6418144106864929
1772739602387913500,14.67291357421875,6.076806545257568,-7.67117166519165,-0.6292304992675781
1772739602397920300,14.682920166015625,6.009997367858887,-7.724348545074463,-0.6202887892723083
1772739602408576300,14.693576171875,5.9291486740112305,-7.78702974319458,-0.6146194934844971
1772739602417960200,14.702960205078124,5.900612831115723,-7.809140682220459,-0.6086851358413696
1772739602429934600,14.7149345703125,5.890468120574951,-7.816908359527588,-0.60723876953125
1772739602438015700,14.723015625,5.859262943267822,-7.8406982421875,-0.6024024486541748
1772739602448062200,14.733062255859375,5.829082489013672,-7.863094329833984,-0.6032768487930298
1772739602458073300,14.7430732421875,5.767492771148682,-7.908080577850342,-0.6071908473968506
1772739602468097300,14.75309716796875,5.726742744445801,-7.937591075897217,-0.6078460812568665
1772739602478115600,14.763115478515624,5.707542896270752,-7.951525688171387,-0.6062924265861511
1772739602498145500,14.7831455078125,5.580535888671875,-8.041038513183594,-0.6080588698387146
1772739602508177200,14.79317724609375,5.472236633300781,-8.115623474121094,-0.6013868451118469
1772739602518179800,14.803179931640624,5.445462226867676,-8.13379955291748,-0.5988698601722717
1772739602528542200,14.813542236328125,5.3843889236450195,-8.174226760864258,-0.60062575340271
1772739602548286200,14.8332861328125,5.249316215515137,-8.260669708251953,-0.6135063171386719
1772739602558275300,14.843275390625,5.138853549957275,-8.329272270202637,-0.6211491823196411
1772739602568929800,14.8539296875,5.045680522918701,-8.384705543518066,-0.6389186978340149
1772739602578301700,14.8633017578125,5.015085697174072,-8.402453422546387,-0.6465948820114136
1772739602590806500,14.875806640625,4.861581802368164,-8.490592956542969,-0.6672574877738953
1772739602618370600,14.90337060546875,4.7452826499938965,-8.557917594909668,-0.6439914703369141
1772739602628710100,14.913710205078125,4.709473133087158,-8.578075408935547,-0.6386527419090271
1772739602638399000,14.92339892578125,4.689676761627197,-8.588594436645508,-0.6429206132888794
1772739602648453600,14.93345361328125,4.604706764221191,-8.633204460144043,-0.6594289541244507
1772739602658455800,14.943455810546874,4.485316753387451,-8.69508171081543,-0.6692466139793396
1772739602668492000,14.953491943359374,4.429043769836426,-8.723482131958008,-0.6744070649147034
1772739602678496800,14.963496826171875,4.406466484069824,-8.734045028686523,-0.6854965686798096
1772739602688548600,14.973548583984375,4.362064838409424,-8.755318641662598,-0.6979781985282898
1772739602698537200,14.983537109375,4.315086841583252,-8.777956008911133,-0.7056216597557068
1772739602718590500,15.003590576171876,4.263145446777344,-8.802742958068848,-0.7125356793403625
1772739602729564200,15.014564208984375,4.2458295822143555,-8.811094284057617,-0.7127031683921814
1772739602738655700,15.02365576171875,4.183008670806885,-8.840466499328613,-0.720416784286499
1772739602750283000,15.035282958984375,4.157167911529541,-8.852103233337402,-0.727056086063385
1772739602758688800,15.043688720703125,4.151496410369873,-8.854597091674805,-0.7290914058685303
1772739602768758000,15.053758056640625,4.1465678215026855,-8.856132507324219,-0.7384393811225891
1772739602778741000,15.063740966796875,4.1330952644348145,-8.861742973327637,-0.7466182708740234
1772739602788764700,15.0737646484375,4.124120712280273,-8.865496635437012,-0.7516615390777588
1772739602798763300,15.08376318359375,4.111435890197754,-8.871323585510254,-0.7523945569992065
1772739602829166600,15.11416650390625,4.078433990478516,-8.8872709274292,-0.7437573671340942
1772739602838856400,15.1238564453125,4.069843769073486,-8.891186714172363,-0.7440142631530762
1772739602848920800,15.1339208984375,4.054534912109375,-8.897781372070312,-0.7487690448760986
1772739602858947600,15.143947509765624,4.03821325302124,-8.905044555664062,-0.7505898475646973
1772739602868983800,15.15398388671875,4.022614479064941,-8.911529541015625,-0.7573810815811157
1772739602878988300,15.16398828125,4.018921375274658,-8.912606239318848,-0.7642802000045776
1772739602889680400,15.174680419921875,4.026928901672363,-8.906791687011719,-0.7894786596298218
1772739602899062000,15.18406201171875,4.039825439453125,-8.899659156799316,-0.8038976192474365
1772739602911636200,15.19663623046875,4.039683818817139,-8.898469924926758,-0.8176692724227905
1772739602929500200,15.214500244140625,3.995182514190674,-8.91642951965332,-0.8403683304786682
1772739603009344800,15.2943447265625,3.920513391494751,-8.939199447631836,-0.9437702298164368
1772739603019328800,15.304328857421876,3.8900277614593506,-8.951176643371582,-0.9562968015670776
1772739603029670400,15.31467041015625,3.8805456161499023,-8.954832077026367,-0.9605933427810669
1772739603039362800,15.32436279296875,3.873945713043213,-8.958098411560059,-0.9567732214927673
1772739603050031900,15.335031982421874,3.8636066913604736,-8.962902069091797,-0.9535858035087585
1772739603071093500,15.356093505859375,3.861764430999756,-8.963807106018066,-0.9525439143180847
1772739603079465500,15.364465576171876,3.8701441287994385,-8.960352897644043,-0.9510177373886108
1772739603089505000,15.374505126953125,3.8821098804473877,-8.955426216125488,-0.9486679434776306
1772739603099500000,15.3845,3.8951587677001953,-8.95014476776123,-0.9450079798698425
1772739603109569300,15.3945693359375,3.9077353477478027,-8.945022583007812,-0.9415814876556396
1772739603119609000,15.404609130859376,3.924008846282959,-8.93815803527832,-0.9390893578529358
1772739603130000000,15.414999755859375,3.9291257858276367,-8.93596363067627,-0.9385632872581482
1772739603139717400,15.42471728515625,3.984622001647949,-8.912668228149414,-0.9260290861129761
1772739603149786600,15.43478662109375,4.024360179901123,-8.895309448242188,-0.921082615852356
1772739603159818200,15.444818359375,4.068446636199951,-8.875463485717773,-0.9188491106033325
1772739603179921200,15.464921142578126,4.151131629943848,-8.83728313446045,-0.917027473449707
1772739603189989000,15.474989013671875,4.165750980377197,-8.830071449279785,-0.920185923576355
1772739603200017400,15.485017333984375,4.218865394592285,-8.805313110351562,-0.9154495596885681
1772739603210712000,15.495712158203125,4.257894515991211,-8.786609649658203,-0.9144468307495117
1772739603220126000,15.5051259765625,4.268367290496826,-8.781597137451172,-0.9137728810310364
1772739603233011000,15.518010986328125,4.405292987823486,-8.715779304504395,-0.8938535451889038
1772739603240509400,15.525509521484375,4.476181983947754,-8.680947303771973,-0.8805199861526489
1772739603250353000,15.535352783203125,4.513768672943115,-8.66190242767334,-0.8761962652206421
1772739603260398000,15.545398193359375,4.657143592834473,-8.587113380432129,-0.8619129061698914
