time,seconds_elapsed,z,y,x
1772734439878070800,0.52207080078125,9.718083381652832,-0.8819490075111389,-0.9754016995429993
1772734439888081400,0.532081298828125,9.721543312072754,-0.8689187169075012,-0.9523429274559021
1772734439898143200,0.542143310546875,9.722224235534668,-0.8501587510108948,-0.9622789025306702
1772734439908153900,0.55215380859375,9.72316837310791,-0.8089307546615601,-0.9879308342933655
1772734439918208800,0.562208740234375,9.723575592041016,-0.7868835926055908,-1.0016382932662964
1772734439928209000,0.572208984375,9.724361419677734,-0.786381721496582,-0.9943788647651672
1772734439938282800,0.58228271484375,9.72485065460205,-0.7855595350265503,-0.9902346134185791
1772734439948270300,0.592270263671875,9.725297927856445,-0.7841989398002625,-0.9869117140769958
1772734439958672400,0.60267236328125,9.725458145141602,-0.783722460269928,-0.9857141375541687
1772734439968327000,0.612326904296875,9.726219177246094,-0.7803179025650024,-0.9808899164199829
1772734439978378800,0.622378662109375,9.72641372680664,-0.7795389294624329,-0.9795853495597839
1772734439988387600,0.6323876953125,9.726936340332031,-0.777524471282959,-0.9759849309921265
1772734439999066600,0.643066650390625,9.727828025817871,-0.7734451293945312,-0.970322847366333
1772734440008447200,0.652447265625,9.728267669677734,-0.7714811563491821,-0.967482328414917
1772734440020981500,0.6649814453125,9.728438377380371,-0.7707065343856812,-0.9663749933242798
1772734440028525300,0.672525390625,9.729935646057129,-0.762420654296875,-0.9578423500061035
1772734440038589400,0.68258935546875,9.730366706848145,-0.7599587440490723,-0.9554160237312317
1772734440048588500,0.692588623046875,9.732198715209961,-0.747295618057251,-0.9466995596885681
1772734440058984200,0.702984130859375,9.732640266418457,-0.7433936595916748,-0.9452349543571472
1772734440068681200,0.71268115234375,9.733241081237793,-0.7370266318321228,-0.9440298080444336
1772734440088751600,0.732751708984375,9.733020782470703,-0.7370555400848389,-0.9462777376174927
1772734440098814700,0.742814697265625,9.733741760253906,-0.7346120476722717,-0.9407394528388977
1772734440108822000,0.752822021484375,9.73398208618164,-0.7337300181388855,-0.9389432668685913
1772734440118909000,0.762908935546875,9.736623764038086,-0.7114362120628357,-0.9286559820175171
1772734440128896500,0.772896484375,9.738895416259766,-0.6887370944023132,-0.9219229817390442
1772734440138955300,0.782955322265625,9.741058349609375,-0.6631852984428406,-0.9177974462509155
1772734440148956700,0.792956787109375,9.742631912231445,-0.6449033617973328,-0.9141107797622681
1772734440159961000,0.803961181640625,9.74349308013916,-0.6398789286613464,-0.9084484577178955
1772734440169038000,0.8130380859375,9.743584632873535,-0.6478289365768433,-0.9018074870109558
1772734440180702000,0.824701904296875,9.743247985839844,-0.6697849631309509,-0.8893188834190369
1772734440199259000,0.8432587890625,9.742894172668457,-0.710696816444397,-0.860986053943634
1772734440209285400,0.853285400390625,9.743939399719238,-0.7191464304924011,-0.8419318199157715
1772734440219339000,0.863339111328125,9.74570369720459,-0.7158046364784241,-0.8241812586784363
1772734440229363200,0.87336328125,9.748331069946289,-0.7011946439743042,-0.8054576516151428
1772734440239432000,0.883431884765625,9.751269340515137,-0.6800506114959717,-0.7878159880638123
1772734440249436700,0.893436767578125,9.752416610717773,-0.6678158044815063,-0.784078061580658
1772734440259798800,0.903798828125,9.7578125,-0.6423541903495789,-0.736794114112854
1772734440269517800,0.913517822265625,9.760204315185547,-0.6367482542991638,-0.7094751596450806
1772734440279585300,0.923585205078125,9.761868476867676,-0.6448612213134766,-0.6785833835601807
1772734440309696000,0.953696044921875,9.76200008392334,-0.7479747533798218,-0.5606052875518799
1772734440320381000,0.964380859375,9.761307716369629,-0.7673174142837524,-0.5463355183601379
1772734440329776600,0.973776611328125,9.760425567626953,-0.8331466913223267,-0.4586374759674072
1772734440342316300,0.98631640625,9.759782791137695,-0.8499733209609985,-0.4411163628101349
1772734440349906000,0.993906005859375,9.75834846496582,-0.9041930437088013,-0.3570012152194977
1772734440360272100,1.004272216796875,9.75686264038086,-0.9379160404205322,-0.30713197588920593
1772734440369961500,1.01396142578125,9.754719734191895,-0.9730870127677917,-0.2625596523284912
1772734440380012300,1.02401220703125,9.751252174377441,-1.0179612636566162,-0.21729804575443268
1772734440410112800,1.05411279296875,9.72944164276123,-1.2271974086761475,-0.048458583652973175
1772734440420164000,1.0641640625,9.719161987304688,-1.3069226741790771,0.014548343606293201
1772734440430183400,1.074183349609375,9.706920623779297,-1.392919898033142,0.07651117444038391
1772734440440260000,1.084260009765625,9.701112747192383,-1.4311970472335815,0.1023249551653862
1772734440450289000,1.094288818359375,9.676526069641113,-1.574838638305664,0.23476606607437134
1772734440460625000,1.104625,9.668736457824707,-1.6166391372680664,0.2690637707710266
1772734440470333700,1.114333740234375,9.632861137390137,-1.7934647798538208,0.4023127257823944
1772734440481002800,1.125002685546875,9.603425979614258,-1.9251868724822998,0.4881017208099365
1772734440502088700,1.146088623046875,9.559367179870605,-2.105991840362549,0.5947170853614807
1772734440510490000,1.154489990234375,9.502774238586426,-2.3115978240966797,0.7240010499954224
1772734440520538600,1.16453857421875,9.467338562011719,-2.4270946979522705,0.8056617379188538
1772734440530521600,1.174521484375,9.43335247039795,-2.529597520828247,0.8850948214530945
1772734440540556000,1.18455615234375,9.39893913269043,-2.62760066986084,0.9623087048530579
1772734440550560000,1.19456005859375,9.360296249389648,-2.7332019805908203,1.0415602922439575
1772734440560928000,1.204927978515625,9.320508003234863,-2.8389124870300293,1.1131443977355957
1772734440570583300,1.214583251953125,9.28026008605957,-2.9445269107818604,1.1734257936477661
1772734440580611300,1.224611328125,9.257413864135742,-2.999361276626587,1.214294195175171
1772734440590620700,1.23462060546875,9.20913314819336,-3.1248669624328613,1.2639079093933105
1772734440620678700,1.2646787109375,9.041791915893555,-3.521744728088379,1.4190492630004883
1772734440630681000,1.27468115234375,8.979374885559082,-3.65987491607666,1.4651026725769043
1772734440641345300,1.28534521484375,8.87218189239502,-3.8766167163848877,1.5577657222747803
1772734440650716700,1.294716552734375,8.844671249389648,-3.926023244857788,1.5901329517364502
1772734440663568000,1.30756787109375,8.731659889221191,-4.125025272369385,1.7066540718078613
1772734440682849000,1.32684912109375,8.63984203338623,-4.269385814666748,1.8154535293579102
1772734440692825900,1.336825927734375,8.558171272277832,-4.402349948883057,1.883455514907837
1772734440722934800,1.366934814453125,8.398345947265625,-4.641378402709961,2.023804187774658
1772734440732939500,1.376939453125,8.355005264282227,-4.702891826629639,2.060845136642456
1772734440742949400,1.386949462890625,8.334566116333008,-4.730142116546631,2.0811429023742676
1772734440752955600,1.39695556640625,8.274477005004883,-4.813249588012695,2.1297996044158936
1772734440763323600,1.40732373046875,8.236047744750977,-4.861697673797607,2.168360948562622
1772734440772990200,1.416990234375,8.205307960510254,-4.8977813720703125,2.2034177780151367
1772734440783042000,1.4270419921875,8.179773330688477,-4.926019668579102,2.2351796627044678
1772734440793038800,1.437038818359375,8.16118335723877,-4.943743705749512,2.26381778717041
1772734440803690000,1.44768994140625,8.151528358459473,-4.947207927703857,2.290874481201172
1772734440824686300,1.468686279296875,8.16938591003418,-4.899387359619141,2.3297059535980225
1772734440833120500,1.47712060546875,8.17403507232666,-4.889477252960205,2.334214687347412
1772734440843167700,1.487167724609375,8.20911979675293,-4.823939800262451,2.3474113941192627
1772734440853149200,1.497149169921875,8.222081184387207,-4.801872730255127,2.3472938537597656
1772734440863491300,1.5074912109375,8.25281810760498,-4.75059175491333,2.343768358230591
1772734440873186800,1.517186767578125,8.297747611999512,-4.67758321762085,2.3319482803344727
1772734440883236900,1.52723681640625,8.328570365905762,-4.627890586853027,2.321190595626831
1772734440893212000,1.5372119140625,8.359701156616211,-4.577316761016846,2.3095362186431885
1772734440923272700,1.567272705078125,8.45499324798584,-4.427733421325684,2.253586769104004
1772734440933253400,1.57725341796875,8.477822303771973,-4.393065452575684,2.2355968952178955
1772734440943279000,1.587279052734375,8.499090194702148,-4.363609790802002,2.212411403656006
1772734440953292300,1.597292236328125,8.515422821044922,-4.344937801361084,2.186199903488159
1772734440964248300,1.608248291015625,8.523466110229492,-4.341486930847168,2.161576509475708
1772734440973311500,1.6173115234375,8.525350570678711,-4.347832202911377,2.141294240951538
1772734440985827600,1.62982763671875,8.525879859924316,-4.352476119995117,2.12971830368042
1772734440993360000,1.63735986328125,8.51461410522461,-4.385799407958984,2.1062984466552734
1772734441003402200,1.64740234375,8.505175590515137,-4.411468982696533,2.0907680988311768
1772734441033429800,1.6774296875,8.494307518005371,-4.456017971038818,2.0398597717285156
1772734441043465000,1.68746484375,8.495085716247559,-4.458773612976074,2.030576705932617
1772734441053441800,1.69744189453125,8.515507698059082,-4.430859088897705,2.005991220474243
1772734441063783400,1.707783447265625,8.52089786529541,-4.425881385803223,1.9940581321716309
1772734441073642200,1.717642333984375,8.545098304748535,-4.389034271240234,1.9718153476715088
1772734441083524400,1.7275244140625,8.556619644165039,-4.3747124671936035,1.953595519065857
1772734441093501000,1.7375009765625,8.560988426208496,-4.3699493408203125,1.945098638534546
1772734441103522600,1.7475224609375,8.564230918884277,-4.368447780609131,1.9341657161712646
1772734441133585200,1.777585205078125,8.55770206451416,-4.3894829750061035,1.9153512716293335
1772734441145243600,1.78924365234375,8.55931568145752,-4.390617370605469,1.905515193939209
1772734441153639200,1.79763916015625,8.5708589553833,-4.374291896820068,1.891121506690979
1772734441163989800,1.80798974609375,8.597091674804688,-4.330376625061035,1.873032569885254
1772734441173666300,1.817666259765625,8.606800079345703,-4.315126419067383,1.8636153936386108
1772734441183686400,1.827686279296875,8.63672924041748,-4.263057231903076,1.844893455505371
1772734441193694200,1.837694091796875,8.655338287353516,-4.231937885284424,1.8292635679244995
1772734441203729700,1.847729736328125,8.661845207214355,-4.2212629318237305,1.8231191635131836
1772734441213701400,1.857701416015625,8.681835174560547,-4.183328628540039,1.8154618740081787
1772734441243763200,1.88776318359375,8.731825828552246,-4.0890703201293945,1.7902793884277344
1772734441253735700,1.897735595703125,8.750073432922363,-4.053295612335205,1.7825289964675903
1772734441264077600,1.90807763671875,8.765226364135742,-4.022556781768799,1.7777032852172852
1772734441273784000,1.9177841796875,8.775628089904785,-4.0005784034729,1.7759861946105957
1772734441284435500,1.928435546875,8.781404495239258,-3.9876770973205566,1.7764447927474976
1772734441293802200,1.93780224609375,8.7816162109375,-3.9866199493408203,1.7777719497680664
1772734441306307800,1.950307861328125,8.775015830993652,-3.9990577697753906,1.78242027759552
1772734441313860600,1.957860595703125,8.768054962158203,-4.012388706207275,1.786711573600769
1772734441323904300,1.967904296875,8.75711727142334,-4.033421516418457,1.7929829359054565
1772734441343907000,1.987906982421875,8.739130973815918,-4.068551063537598,1.801351547241211
1772734441353923000,1.997923095703125,8.734580039978027,-4.078983306884766,1.7998359203338623
1772734441364283600,2.00828369140625,8.72866439819336,-4.08816385269165,1.807686686515808
1772734441373941000,2.01794091796875,8.724089622497559,-4.095980644226074,1.8120708465576172
1772734441383958800,2.027958740234375,8.717047691345215,-4.108870029449463,1.8167710304260254
1772734441393962800,2.037962646484375,8.7100830078125,-4.123086452484131,1.8179657459259033
1772734441403995000,2.047994873046875,8.695898056030273,-4.1510162353515625,1.8223066329956055
1772734441413981000,2.05798095703125,8.675812721252441,-4.190038681030273,1.8287267684936523
1772734441424001800,2.068001708984375,8.667985916137695,-4.204520225524902,1.832597017288208
1772734441454026800,2.09802685546875,8.655567169189453,-4.228854179382324,1.835300326347351
1772734441465945900,2.10994580078125,8.65612506866455,-4.227886199951172,1.8349015712738037
1772734441474068000,2.11806787109375,8.655532836914062,-4.229440689086914,1.8341119289398193
1772734441484104000,2.12810400390625,8.651820182800293,-4.237325191497803,1.8334300518035889
1772734441494084600,2.138084716796875,8.646440505981445,-4.248106956481934,1.8338623046875
1772734441504114200,2.1481142578125,8.642836570739746,-4.255622386932373,1.8334219455718994
1772734441514150000,2.15814990234375,8.641999244689941,-4.257932186126709,1.8320080041885376
1772734441524200200,2.1682001953125,8.642230987548828,-4.258576393127441,1.82941734790802
1772734441534188000,2.17818798828125,8.646634101867676,-4.25185489654541,1.8242381811141968
1772734441554236200,2.198236083984375,8.653623580932617,-4.239779472351074,1.8191907405853271
1772734441564607000,2.20860693359375,8.656022071838379,-4.23525857925415,1.818310260772705
1772734441574284000,2.218283935546875,8.657186508178711,-4.2334394454956055,1.8170042037963867
1772734441584317400,2.2283173828125,8.657966613769531,-4.232722759246826,1.8149542808532715
1772734441594321400,2.2383212890625,8.658040046691895,-4.233641147613525,1.8124604225158691
1772734441604985300,2.2489853515625,8.658266067504883,-4.233774185180664,1.8110744953155518
1772734441614362400,2.2583623046875,8.658116340637207,-4.2333455085754395,1.8127835988998413
1772734441626890000,2.270889892578125,8.660714149475098,-4.226751327514648,1.815763235092163
1772734441654485200,2.2984853515625,8.667309761047363,-4.215547561645508,1.8103312253952026
1772734441664827100,2.3088271484375,8.673423767089844,-4.203373432159424,1.8093533515930176
1772734441684597500,2.328597412109375,8.680025100708008,-4.192354202270508,1.8032548427581787
1772734441694593500,2.338593505859375,8.681884765625,-4.189574718475342,1.8007584810256958
1772734441704656100,2.34865625,8.682811737060547,-4.188061237335205,1.799809217453003
1772734441714664000,2.358663818359375,8.680928230285645,-4.191920757293701,1.7999110221862793
1772734441724718300,2.36871826171875,8.676871299743652,-4.199851989746094,1.8009835481643677
1772734441734708700,2.378708740234375,8.672005653381348,-4.209040641784668,1.8029677867889404
1772734441754780200,2.3987802734375,8.661813735961914,-4.228823184967041,1.8056639432907104
1772734441765757200,2.409757080078125,8.65813159942627,-4.2373247146606445,1.803390383720398
1772734441774830000,2.418830078125,8.656538963317871,-4.240725517272949,1.803044319152832
1772734441786496500,2.43049658203125,8.653532028198242,-4.247212886810303,1.8022100925445557
1772734441794912800,2.438912841796875,8.650842666625977,-4.252610683441162,1.8023899793624878
1772734441804962800,2.448962890625,8.645286560058594,-4.263042449951172,1.8044068813323975
1772734441814945500,2.458945556640625,8.638790130615234,-4.275217533111572,1.8067121505737305
1772734441824974800,2.468974853515625,8.635580062866211,-4.281260967254639,1.8077479600906372
1772734441835001600,2.479001708984375,8.622842788696289,-4.304939270019531,1.812309741973877
1772734441845052200,2.48905224609375,8.619291305541992,-4.311545372009277,1.8135000467300415
1772734441875072000,2.519072021484375,8.595925331115723,-4.355192184448242,1.8200994729995728
1772734441885125000,2.529125,8.589516639709473,-4.367915153503418,1.8198645114898682
1772734441895105800,2.539105712890625,8.58322525024414,-4.380471706390381,1.8193682432174683
1772734441905137400,2.549137451171875,8.580914497375488,-4.3851094245910645,1.819091796875
1772734441915168000,2.55916796875,8.569202423095703,-4.408576965332031,1.8175798654556274
1772734441925825500,2.569825439453125,8.566459655761719,-4.4140305519104,1.8172736167907715
1772734441935194600,2.579194580078125,8.559907913208008,-4.428154468536377,1.8137866258621216
1772734441947721200,2.59172119140625,8.54819393157959,-4.454159259796143,1.8053297996520996
1772734441975306200,2.61930615234375,8.534940719604492,-4.481673717498779,1.7999392747879028
1772734441985340200,2.629340087890625,8.531501770019531,-4.488081455230713,1.800276279449463
1772734441995351300,2.639351318359375,8.529664039611816,-4.490856647491455,1.8020612001419067
1772734442005401900,2.64940185546875,8.527801513671875,-4.495030879974365,1.8004697561264038
1772734442015383600,2.659383544921875,8.528470039367676,-4.494359493255615,1.7989751100540161
1772734442025416200,2.669416259765625,8.528636932373047,-4.4941887855529785,1.798612117767334
1772734442035483100,2.679483154296875,8.528751373291016,-4.494952201843262,1.796158790588379
1772734442045474600,2.689474609375,8.528803825378418,-4.49597692489624,1.793343424797058
1772734442055452000,2.699451904296875,8.527669906616211,-4.499104022979736,1.7908968925476074
1772734442086180900,2.730180908203125,8.523778915405273,-4.506726264953613,1.790249228477478
1772734442095561000,2.73956103515625,8.521751403808594,-4.5111565589904785,1.788742184638977
1772734442107206100,2.7512060546875,8.520365715026855,-4.513949394226074,1.7883013486862183
1772734442115641300,2.759641357421875,8.519307136535645,-4.516322612762451,1.7873486280441284
1772734442125702000,2.769701904296875,8.518232345581055,-4.518970966339111,1.7857823371887207
1772734442135704600,2.77970458984375,8.516108512878418,-4.523643970489502,1.7840776443481445
1772734442145743000,2.7897431640625,8.515780448913574,-4.524858474731445,1.7825613021850586
1772734442155768300,2.799768310546875,8.51284408569336,-4.532017707824707,1.778398871421814
1772734442166135000,2.810135009765625,8.508345603942871,-4.542445182800293,1.7733129262924194
1772734442195903000,2.839903076171875,8.498929977416992,-4.5631232261657715,1.765352487564087
1772734442205968000,2.8499677734375,8.495248794555664,-4.570528507232666,1.7639163732528687
1772734442215968800,2.85996875,8.493698120117188,-4.573659420013428,1.7632704973220825
1772734442226013400,2.870013427734375,8.487456321716309,-4.586558818817139,1.7598180770874023
1772734442236032300,2.8800322265625,8.484624862670898,-4.592929840087891,1.7568515539169312
1772734442246711600,2.890711669921875,8.483034133911133,-4.5967631340026855,1.7545064687728882
1772734442256100900,2.900100830078125,8.483454704284668,-4.597135066986084,1.7514946460723877
1772734442268974800,2.912974853515625,8.482632637023926,-4.599541664123535,1.7491555213928223
1772734442286267400,2.930267333984375,8.482344627380371,-4.601431846618652,1.7455799579620361
1772734442296271600,2.940271728515625,8.481046676635742,-4.604822158813477,1.742943525314331
1772734442306322700,2.95032275390625,8.479886054992676,-4.607780456542969,1.740771770477295
1772734442316369000,2.960368896484375,8.477672576904297,-4.613035202026367,1.7376333475112915
1772734442326436400,2.970436279296875,8.47486686706543,-4.619429111480713,1.7343308925628662
1772734442336424400,2.980424560546875,8.473902702331543,-4.621565818786621,1.7333476543426514
1772734442346461700,2.990461669921875,8.461098670959473,-4.644693851470947,1.7340741157531738
1772734442356476400,3.000476318359375,8.457923889160156,-4.650683403015137,1.733507513999939
1772734442366839600,3.010839599609375,8.449049949645996,-4.666480541229248,1.734331727027893
1772734442376513500,3.020513427734375,8.438319206237793,-4.685616493225098,1.734981656074524
1772734442407212500,3.051212646484375,8.431214332580566,-4.7001214027404785,1.7302824258804321
1772734442416589600,3.060589599609375,8.429984092712402,-4.702292442321777,1.730377435684204
1772734442428258800,3.0722587890625,8.428290367126465,-4.704558372497559,1.7324638366699219
1772734442436655600,3.080655517578125,8.426277160644531,-4.70727014541626,1.7348908185958862
1772734442446702800,3.090702880859375,8.42284870147705,-4.712238788604736,1.738047480583191
1772734442456681500,3.100681396484375,8.419147491455078,-4.7175703048706055,1.7415175437927246
1772734442467058400,3.111058349609375,8.41431999206543,-4.725600719451904,1.7430769205093384
1772734442476796000,3.1207958984375,8.40900993347168,-4.734715461730957,1.7439649105072021
1772734442486900500,3.130900390625,8.407332420349121,-4.738461494445801,1.7418767213821411
1772734442517061400,3.161061279296875,8.392036437988281,-4.764963626861572,1.7433414459228516
1772734442527154400,3.171154541015625,8.388915061950684,-4.769191265106201,1.746801733970642
1772734442537182000,3.181181884765625,8.390021324157715,-4.766899585723877,1.7477436065673828
1772734442547265300,3.191265380859375,8.390886306762695,-4.764466285705566,1.7502188682556152
1772734442557315800,3.20131591796875,8.393251419067383,-4.759883880615234,1.7513498067855835
1772734442568331800,3.212331787109375,8.395963668823242,-4.75466775894165,1.7525161504745483
1772734442577450200,3.2214501953125,8.39785385131836,-4.751283645629883,1.7526378631591797
1772734442590010000,3.234010009765625,8.397741317749023,-4.74958610534668,1.7577714920043945
1772734442617706800,3.261706787109375,8.395520210266113,-4.7517266273498535,1.762588381767273
1772734442627791400,3.271791259765625,8.389483451843262,-4.761592864990234,1.7647082805633545
1772734442637807900,3.281807861328125,8.384827613830566,-4.770288944244385,1.763350248336792
1772734442647845000,3.29184521484375,8.382689476013184,-4.7748236656188965,1.761238694190979
1772734442657846300,3.30184619140625,8.36599063873291,-4.805154800415039,1.7581453323364258
1772734442668220000,3.312219970703125,8.35435962677002,-4.826159477233887,1.7559185028076172
1772734442677961700,3.321961669921875,8.344112396240234,-4.844418525695801,1.7543625831604004
1772734442688038700,3.33203857421875,8.335784912109375,-4.858768463134766,1.7542674541473389
1772734442698085600,3.342085693359375,8.32929515838623,-4.870243072509766,1.7532739639282227
1772734442728918000,3.37291796875,8.306486129760742,-4.910243511199951,1.749907374382019
1772734442738353400,3.382353515625,8.302566528320312,-4.9159040451049805,1.752615213394165
1772734442750046000,3.3940458984375,8.284760475158691,-4.94308614730835,1.7604084014892578
1772734442758506200,3.40250634765625,8.277280807495117,-4.954089641571045,1.7646552324295044
1772734442768892700,3.412892578125,8.270917892456055,-4.963690757751465,1.7675055265426636
1772734442778622200,3.422622314453125,8.267265319824219,-4.968873500823975,1.770029902458191
1772734442788706800,3.432706787109375,8.265482902526855,-4.971310138702393,1.7715115547180176
1772734442798726700,3.4427265625,8.265625,-4.970485687255859,1.77316153049469
1772734442808798000,3.4527978515625,8.26661491394043,-4.968089580535889,1.7752606868743896
1772734442828933400,3.472933349609375,8.266982078552246,-4.964590072631836,1.7833216190338135
1772734442838961400,3.48296142578125,8.267169952392578,-4.962833404541016,1.7873380184173584
1772734442849038600,3.49303857421875,8.267539978027344,-4.960853099822998,1.7911168336868286
1772734442859054300,3.503054443359375,8.268630027770996,-4.95889949798584,1.791494607925415
1772734442869425000,3.5134248046875,8.270224571228027,-4.955943584442139,1.7923166751861572
1772734442879119400,3.523119384765625,8.270791053771973,-4.9539995193481445,1.7950763702392578
1772734442889807400,3.533807373046875,8.273326873779297,-4.949357509613037,1.7961949110031128
1772734442899243800,3.543243896484375,8.276238441467285,-4.944644451141357,1.7957607507705688
1772734442911805400,3.555805419921875,8.278660774230957,-4.941491603851318,1.7932748794555664
1772734442929465900,3.5734658203125,8.288402557373047,-4.925356864929199,1.7926626205444336
1772734442939517200,3.58351708984375,8.294081687927246,-4.915575981140137,1.7932411432266235
1772734442949610200,3.5936103515625,8.297904014587402,-4.909183979034424,1.793068289756775
1772734442959646000,3.60364599609375,8.303698539733887,-4.897502422332764,1.798177719116211
1772734442970023200,3.614023193359375,8.307158470153809,-4.8903422355651855,1.801680088043213
1772734442979713300,3.62371337890625,8.30914306640625,-4.885204792022705,1.8064618110656738
1772734442989766100,3.63376611328125,8.310857772827148,-4.881913185119629,1.8074698448181152
1772734442999763200,3.64376318359375,8.31149959564209,-4.87862491607666,1.8133883476257324
1772734443009793300,3.653793212890625,8.310934066772461,-4.874552249908447,1.8268846273422241
1772734443019794000,3.6637939453125,8.312808990478516,-4.8711066246032715,1.8275429010391235
1772734443050493700,3.69449365234375,8.311522483825684,-4.862330913543701,1.8565350770950317
1772734443059884000,3.703884033203125,8.31129264831543,-4.858767032623291,1.8668639659881592
1772734443071881000,3.715880859375,8.310819625854492,-4.852597236633301,1.8849313259124756
1772734443079950600,3.72395068359375,8.311405181884766,-4.845803737640381,1.8997702598571777
1772734443089991400,3.733991455078125,8.313117980957031,-4.83384370803833,1.922602653503418
1772734443099996000,3.743995849609375,8.316286087036133,-4.817662715911865,1.9493314027786255
1772734443110046200,3.754046142578125,8.320401191711426,-4.797931671142578,1.9801931381225586
1772734443120059400,3.764059326171875,8.32431411743164,-4.776549816131592,2.0151331424713135
1772734443150159000,3.7941591796875,8.344717025756836,-4.683425426483154,2.145137310028076
1772734443160180000,3.804179931640625,8.350427627563477,-4.664835453033447,2.1633424758911133
1772734443170569000,3.81456884765625,8.364925384521484,-4.6003193855285645,2.243987560272217
1772734443180297500,3.82429736328125,8.374465942382812,-4.558440685272217,2.293323040008545
1772734443190381300,3.83438134765625,8.383138656616211,-4.515903472900391,2.3452084064483643
1772734443200404700,3.84440478515625,8.390563011169434,-4.473954677581787,2.398454427719116
1772734443211088600,3.855088623046875,8.395389556884766,-4.453269004821777,2.4199633598327637
1772734443220518400,3.864518310546875,8.405746459960938,-4.3830389976501465,2.510535478591919
1772734443233095200,3.87709521484375,8.422210693359375,-4.3035502433776855,2.5915660858154297
1772734443260777700,3.90477783203125,8.474624633789062,-4.109176158905029,2.732360363006592
1772734443271181000,3.91518115234375,8.502859115600586,-4.0149970054626465,2.784163236618042
1772734443280900400,3.924900390625,8.532215118408203,-3.920177936553955,2.8291172981262207
1772734443290969300,3.93496923828125,8.546334266662598,-3.876058578491211,2.8472328186035156
1772734443301019400,3.945019287109375,8.598315238952637,-3.7055420875549316,2.9169013500213623
1772734443311114500,3.955114501953125,8.632261276245117,-3.5891201496124268,2.9618701934814453
1772734443321136600,3.96513671875,8.665777206420898,-3.4686808586120605,3.007150650024414
1772734443331212800,3.975212890625,8.698164939880371,-3.34501576423645,3.0533883571624756
1772734443341263600,3.985263671875,8.728388786315918,-3.2241146564483643,3.096886157989502
1772734443372366800,4.016366943359375,8.818852424621582,-2.8473124504089355,3.20796537399292
1772734443381504300,4.025504150390625,8.82767105102539,-2.8043529987335205,3.221522331237793
1772734443393187000,4.03718701171875,8.884490013122559,-2.580791711807251,3.252037286758423
1772734443401653000,4.045653076171875,8.910849571228027,-2.467376708984375,3.2679054737091064
1772734443411725000,4.05572509765625,8.941911697387695,-2.3303520679473877,3.283604860305786
1772734443421760800,4.0657607421875,8.972640037536621,-2.19010853767395,3.2962937355041504
1772734443431858000,4.07585791015625,9.002785682678223,-2.0451767444610596,3.3071892261505127
1772734443441875200,4.085875244140625,9.032364845275879,-1.896412968635559,3.315176248550415
1772734443472414500,4.11641455078125,9.116737365722656,-1.4192745685577393,3.322822332382202
1772734443482119400,4.126119384765625,9.138863563537598,-1.2595937252044678,3.3264076709747314
1772734443492147200,4.136147216796875,9.145710945129395,-1.1909418106079102,3.3328704833984375
1772734443502132500,4.146132568359375,9.178207397460938,-0.9233619570732117,3.3284058570861816
1772734443512164900,4.156164794921875,9.183292388916016,-0.8553569912910461,3.332552433013916
1772734443522203000,4.166202880859375,9.207314491271973,-0.6116376519203186,3.3198885917663574
1772734443532806000,4.176805908203125,9.215713500976562,-0.4646126329898834,3.3204126358032227
1772734443542183700,4.18618359375,9.22076416015625,-0.34720271825790405,3.320744037628174
1772734443572555000,4.216554931640625,9.22746753692627,-0.10682188719511032,3.3185572624206543
1772734443592262100,4.23626220703125,9.229753494262695,0.06578041613101959,3.3132643699645996
1772734443602233600,4.246233642578125,9.228079795837402,0.08200418204069138,3.3175606727600098
1772734443612244000,4.256243896484375,9.25218391418457,0.14229921996593475,3.247649908065796
1772734443622248400,4.26624853515625,9.271771430969238,0.16334274411201477,3.190293073654175
1772734443632310300,4.276310302734375,9.295048713684082,0.17420534789562225,3.121234178543091
1772734443642311700,4.286311767578125,9.320432662963867,0.17699973285198212,3.0444369316101074
1772734443652363000,4.296363037109375,9.347931861877441,0.1723494976758957,2.959197759628296
1772734443672763600,4.316763671875,9.407243728637695,0.15365013480186462,2.7659616470336914
1772734443693143600,4.3371435546875,9.469069480895996,0.1817990243434906,2.5444180965423584
1772734443702622500,4.34662255859375,9.479622840881348,0.19316263496875763,2.5039620399475098
1772734443714265900,4.358265869140625,9.510663032531738,0.25653424859046936,2.3773629665374756
1772734443722649900,4.36664990234375,9.540453910827637,0.3738046884536743,2.238389253616333
1772734443732701000,4.376700927734375,9.579524040222168,0.6077734231948853,2.008416175842285
1772734443742717000,4.386717041015625,9.597501754760742,0.7949899435043335,1.8510363101959229
1772734443752787500,4.396787353515625,9.603094100952148,0.8783121705055237,1.7831252813339233
1772734443782877400,4.42687744140625,9.608312606811523,1.6074578762054443,1.1255172491073608
1772734443792945200,4.436945068359375,9.593439102172852,1.807443380355835,0.9324479103088379
1772734443802943700,4.44694384765625,9.567620277404785,2.019927501678467,0.7422426342964172
1772734443812995000,4.4569951171875,9.553878784179688,2.110853433609009,0.6618874073028564
1772734443823022800,4.46702294921875,9.465804100036621,2.5349984169006348,0.37779849767684937
1772734443833100300,4.477100341796875,9.381750106811523,2.84729266166687,0.21465492248535156
1772734443843120400,4.487120361328125,9.273642539978027,3.188359260559082,0.06562047451734543
1772734443853785900,4.497785888671875,9.12966537475586,3.5791609287261963,-0.0959891602396965
1772734443876088800,4.5200888671875,8.7296724319458,4.443933010101318,-0.46333006024360657
1772734443883656400,4.527656494140625,8.726066589355469,4.449810981750488,-0.47469213604927063
1772734443893356000,4.53735595703125,8.462043762207031,4.910548686981201,-0.671349823474884
1772734443903380500,4.54738037109375,8.395148277282715,5.016364574432373,-0.7266035079956055
1772734443913451000,4.557450927734375,8.212911605834961,5.282999515533447,-0.8991008996963501
1772734443923484400,4.567484375,8.145379066467285,5.3687214851379395,-1.0000085830688477
1772734443933532700,4.57753271484375,8.114729881286621,5.396618366241455,-1.094561219215393
1772734443943571700,4.58757177734375,8.11348819732666,5.379835605621338,-1.182824730873108
1772734443953643000,4.59764306640625,8.132015228271484,5.332786560058594,-1.2657397985458374
1772734443983724500,4.627724609375,8.226571083068848,5.1215362548828125,-1.5045866966247559
1772734443993796900,4.637796875,8.240554809570312,5.090010166168213,-1.5347414016723633
1772734444003796700,4.647796630859375,8.273859977722168,5.00930118560791,-1.6188080310821533
1772734444014455000,4.658455078125,8.284238815307617,4.972269535064697,-1.6787835359573364
1772734444023863800,4.66786376953125,8.286531448364258,4.949223041534424,-1.734639048576355
1772734444035521300,4.679521240234375,8.282965660095215,4.929271221160889,-1.806972861289978
1772734444043958300,4.687958251953125,8.27865982055664,4.916409969329834,-1.8609395027160645
1772734444054005800,4.698005859375,8.273860931396484,4.896976470947266,-1.9321584701538086
1772734444084109600,4.728109619140625,8.258342742919922,4.844101428985596,-2.1224637031555176
1772734444094166500,4.73816650390625,8.254528045654297,4.824553966522217,-2.1810145378112793
1772734444104186400,4.748186279296875,8.24941635131836,4.806781768798828,-2.2388322353363037
1772734444114256100,4.758256103515625,8.243901252746582,4.788839817047119,-2.296844720840454
1772734444124269600,4.76826953125,8.241545677185059,4.781342506408691,-2.3207924365997314
1772734444134331100,4.7783310546875,8.237707138061523,4.760114669799805,-2.3773679733276367
1772734444144402400,4.78840234375,8.236412048339844,4.718405246734619,-2.4634454250335693
1772734444154367000,4.798366943359375,8.235321998596191,4.69219970703125,-2.516569137573242
1772734444164353500,4.808353515625,8.226499557495117,4.676971912384033,-2.5731360912323
1772734444184379100,4.828379150390625,8.16860580444336,4.717755317687988,-2.680868148803711
1772734444196899600,4.840899658203125,8.103048324584961,4.795649528503418,-2.740938901901245
1772734444204415700,4.848415771484375,8.05760669708252,4.850754737854004,-2.7776877880096436
1772734444214434000,4.85843408203125,8.029444694519043,4.8851118087768555,-2.798945665359497
1772734444224433200,4.86843310546875,7.935622215270996,4.989294052124023,-2.8815324306488037
1772734444234468400,4.87846826171875,7.880610942840576,5.044717788696289,-2.935504674911499
1772734444244441600,4.888441650390625,7.831682205200195,5.094048500061035,-2.9809067249298096
1772734444254671600,4.898671630859375,7.808863639831543,5.117637634277344,-3.000302791595459
1772734444264464000,4.9084638671875,7.749658584594727,5.179030418395996,-3.048084020614624
1772734444294514200,4.93851416015625,7.644317150115967,5.278958797454834,-3.141240358352661
1772734444304532000,4.948531982421875,7.616940021514893,5.298303604125977,-3.1749954223632812
1772734444314579200,4.9585791015625,7.593904972076416,5.310988903045654,-3.208799123764038
1772734444324585500,4.96858544921875,7.579511642456055,5.321091651916504,-3.226046562194824
1772734444335220200,4.97922021484375,7.553669452667236,5.3284430503845215,-3.2741665840148926
1772734444344599600,4.988599609375,7.531712532043457,5.33860969543457,-3.308012008666992
1772734444356272000,5.000272216796875,7.503865718841553,5.347896099090576,-3.3559486865997314
1772734444364626200,5.008626220703125,7.478766441345215,5.355165958404541,-3.400094985961914
1772734444374950100,5.0189501953125,7.448185920715332,5.362669467926025,-3.4549520015716553
1772734444404635600,5.0486357421875,7.360881805419922,5.3827433586120605,-3.6074750423431396
1772734444414646500,5.058646484375,7.33051872253418,5.394442558288574,-3.6515567302703857
1772734444424638700,5.068638671875,7.302751064300537,5.405397891998291,-3.6907851696014404
1772734444434662000,5.078661865234375,7.278440475463867,5.416078090667725,-3.723008871078491
1772734444444622800,5.088622802734375,7.268258094787598,5.419850826263428,-3.7373833656311035
1772734444454639400,5.098639404296875,7.2384562492370605,5.437425136566162,-3.7695553302764893
1772734444464631800,5.1086318359375,7.221560955047607,5.446734428405762,-3.788472890853882
1772734444474973000,5.118972900390625,7.205835819244385,5.456631183624268,-3.8041417598724365
1772734444504722200,5.14872216796875,7.186611175537109,5.461309909820557,-3.833681344985962
1772734444517281000,5.161281005859375,7.19589900970459,5.4424004554748535,-3.84313702583313
1772734444524829000,5.168828857421875,7.196636199951172,5.440741539001465,-3.844106912612915
1772734444534878000,5.1788779296875,7.206744194030762,5.428277015686035,-3.842789649963379
1772734444544903200,5.188903076171875,7.206938743591309,5.429186820983887,-3.841139793395996
1772734444554973700,5.1989736328125,7.204122066497803,5.435578346252441,-3.837383985519409
1772734444564971500,5.208971435546875,7.195977210998535,5.4447102546691895,-3.83971905708313
1772734444575337200,5.219337158203125,7.187519073486328,5.456273078918457,-3.839146852493286
1772734444585052400,5.229052490234375,7.186075210571289,5.457890033721924,-3.839547634124756
1772734444605126000,5.2491259765625,7.173871040344238,5.468452453613281,-3.8473353385925293
1772734444615172000,5.259172119140625,7.157176494598389,5.48435640335083,-3.855780839920044
1772734444625196300,5.2691962890625,7.14550256729126,5.495035648345947,-3.8622238636016846
1772734444635254500,5.279254638671875,7.128746032714844,5.512112617492676,-3.868846893310547
1772734444645251600,5.28925146484375,7.12283182144165,5.522027015686035,-3.8656015396118164
1772734444655905500,5.299905517578125,7.12289571762085,5.523073673248291,-3.8639883995056152
1772734444665320700,5.30932080078125,7.132752418518066,5.501476287841797,-3.8765969276428223
1772734444677285400,5.321285400390625,7.156121730804443,5.448935508728027,-3.9076120853424072
1772734444716560100,5.36056005859375,7.236261367797852,5.3274664878845215,-3.9274704456329346
1772734444726583600,5.37058349609375,7.247034072875977,5.31179141998291,-3.9288365840911865
1772734444736621300,5.380621337890625,7.246471881866455,5.315631866455078,-3.924677610397339
1772734444746641200,5.39064111328125,7.266970157623291,5.285092830657959,-3.928018808364868
1772734444756709000,5.400709228515625,7.321174144744873,5.203029155731201,-3.936912775039673
1772734444766725000,5.41072509765625,7.339273452758789,5.177972793579102,-3.9362494945526123
1772734444777087700,5.421087646484375,7.419763088226318,5.043876647949219,-3.9593958854675293
1772734444786800600,5.430800537109375,7.483455657958984,4.938202381134033,-3.9727115631103516
1772734444806889500,5.450889404296875,7.6540913581848145,4.656866073608398,-3.987339496612549
1772734444817571600,5.461571533203125,7.761719226837158,4.478599548339844,-3.9834988117218018
1772734444826992600,5.47099267578125,7.859689712524414,4.316570281982422,-3.970250368118286
1772734444839554800,5.483554931640625,7.890052318572998,4.275367259979248,-3.954578161239624
1772734444848106200,5.492106201171875,8.04489803314209,4.012068748474121,-3.9183290004730225
1772734444858173200,5.502173095703125,8.114522933959961,3.890425682067871,-3.8973710536956787
1772734444868186400,5.512186279296875,8.16149616241455,3.8002688884735107,-3.888230323791504
1772734444878552000,5.522552001953125,8.182310104370117,3.755455255508423,-3.888024091720581
1772734444888281600,5.532281494140625,8.177828788757324,3.7619974613189697,-3.891127109527588
1772734444898350300,5.542350341796875,8.158567428588867,3.7947912216186523,-3.8997092247009277
1772734444918425600,5.562425537109375,8.108803749084473,3.8469204902648926,-3.952073574066162
1772734444928454100,5.5724541015625,8.105524063110352,3.843223810195923,-3.9623863697052
1772734444938533400,5.582533447265625,8.101683616638184,3.85424542427063,-3.9595320224761963
1772734444948546600,5.592546630859375,8.145608901977539,3.786391496658325,-3.9348044395446777
1772734444958605300,5.602605224609375,8.176758766174316,3.7354683876037598,-3.9188363552093506
1772734444968627700,5.612627685546875,8.197660446166992,3.707314968109131,-3.9018678665161133
1772734444979626200,5.623626220703125,8.205909729003906,3.686105966567993,-3.904620409011841
1772734444988724500,5.632724365234375,8.201147079467773,3.6811845302581787,-3.919240951538086
1772734445000414700,5.644414794921875,8.182390213012695,3.7206497192382812,-3.921177864074707
1772734445008839200,5.652839111328125,8.176377296447754,3.73339581489563,-3.9216079711914062
1772734445018921000,5.6629208984375,8.154862403869629,3.788400173187256,-3.9136483669281006
1772734445028900000,5.672900146484375,8.150431632995605,3.8083372116088867,-3.903512954711914
1772734445038918000,5.68291796875,8.153870582580566,3.813053846359253,-3.891709804534912
1772734445048952800,5.692952880859375,8.156515121459961,3.811626672744751,-3.8875648975372314
1772734445059021600,5.703021484375,8.179207801818848,3.7902743816375732,-3.8606696128845215
1772734445069028600,5.713028564453125,8.200285911560059,3.768050193786621,-3.837641477584839
1772734445079389700,5.7233896484375,8.209400177001953,3.756395101547241,-3.829573631286621
1772734445089110000,5.733110107421875,8.24046802520752,3.715566396713257,-3.8025848865509033
1772734445099182000,5.74318212890625,8.25983715057373,3.69028639793396,-3.7851369380950928
1772734445119253200,5.763253173828125,8.290545463562012,3.6484861373901367,-3.7584292888641357
1772734445129311500,5.7733115234375,8.29555892944336,3.641007661819458,-3.7546162605285645
1772734445139989200,5.7839892578125,8.312731742858887,3.6199021339416504,-3.73700213432312
1772734445149380400,5.79338037109375,8.321942329406738,3.6106553077697754,-3.7254316806793213
1772734445161916200,5.805916259765625,8.333989143371582,3.597778081893921,-3.710932493209839
1772734445169486600,5.813486572265625,8.338582992553711,3.5979623794555664,-3.700416326522827
1772734445179866400,5.823866455078125,8.3499174118042,3.5845696926116943,-3.687835216522217
1772734445189563000,5.83356298828125,8.362104415893555,3.567312002182007,-3.6769402027130127
1772734445199620400,5.843620361328125,8.376971244812012,3.5433735847473145,-3.6662306785583496
1772734445219712500,5.86371240234375,8.40405559539795,3.492337703704834,-3.6531929969787598
1772734445229724200,5.87372412109375,8.413981437683105,3.473757028579712,-3.648057222366333
1772734445239783000,5.883782958984375,8.421640396118164,3.4630849361419678,-3.640521287918091
1772734445249809400,5.893809326171875,8.422476768493652,3.464388132095337,-3.637346029281616
1772734445259887400,5.903887451171875,8.432724952697754,3.4577081203460693,-3.619915723800659
1772734445269894700,5.913894775390625,8.43790054321289,3.457146644592285,-3.6083741188049316
1772734445280257800,5.9242578125,8.444926261901855,3.4504287242889404,-3.5983548164367676
1772734445289978000,5.93397802734375,8.452043533325195,3.4429261684417725,-3.5888173580169678
1772734445300655000,5.944655029296875,8.459976196289062,3.4315872192382812,-3.580976724624634
1772734445310044700,5.954044677734375,8.467902183532715,3.4170913696289062,-3.5761027336120605
1772734445330140400,5.974140380859375,8.47522258758545,3.4054105281829834,-3.5698978900909424
1772734445340208400,5.98420849609375,8.472911834716797,3.4165561199188232,-3.564729928970337
1772734445350205400,5.994205322265625,8.468854904174805,3.4287147521972656,-3.5626955032348633
1772734445360252400,6.00425244140625,8.46465015411377,3.4405689239501953,-3.561260938644409
1772734445370284000,6.014283935546875,8.461677551269531,3.4486641883850098,-3.5604944229125977
1772734445380663800,6.024663818359375,8.460613250732422,3.4517035484313965,-3.560077667236328
1772734445390350000,6.03435009765625,8.462207794189453,3.4498941898345947,-3.558042049407959
1772734445400399400,6.0443994140625,8.466079711914062,3.446369171142578,-3.552243947982788
1772734445410422000,6.054422119140625,8.469097137451172,3.443185806274414,-3.5481338500976562
1772734445440546300,6.08454638671875,8.48839282989502,3.4300179481506348,-3.514620780944824
1772734445450567200,6.094567138671875,8.496565818786621,3.423527240753174,-3.5011730194091797
1772734445461357600,6.105357666015625,8.501209259033203,3.419553756713867,-3.4937784671783447
1772734445470642700,6.114642578125,8.511274337768555,3.4086456298828125,-3.4799022674560547
1772734445483515100,6.12751513671875,8.527470588684082,3.3881983757019043,-3.4601640701293945
1772734445491017500,6.135017578125,8.529569625854492,3.3853275775909424,-3.4578018188476562
1772734445500834600,6.14483447265625,8.535881996154785,3.3769454956054688,-3.4504125118255615
1772734445510842400,6.15484228515625,8.539807319641113,3.3728129863739014,-3.4447360038757324
1772734445520872200,6.1648720703125,8.54227352142334,3.3738558292388916,-3.437593698501587
1772734445540964400,6.18496435546875,8.538649559020996,3.3872523307800293,-3.433420181274414
1772734445550948600,6.194948486328125,8.53533935546875,3.3946144580841064,-3.4343817234039307
1772734445560991000,6.204990966796875,8.531440734863281,3.403150796890259,-3.435617446899414
1772734445570991900,6.214991943359375,8.52776050567627,3.4125661849975586,-3.4354166984558105
1772734445581375000,6.225375,8.525177001953125,3.420248031616211,-3.4341883659362793
1772734445591060700,6.235060791015625,8.526511192321777,3.4223415851593018,-3.428786277770996
1772734445601099300,6.245099365234375,8.528608322143555,3.419443130493164,-3.426461935043335
1772734445611116000,6.255115966796875,8.526655197143555,3.4223132133483887,-3.428457021713257
1772734445621794600,6.265794677734375,8.527137756347656,3.418447494506836,-3.431110143661499
1772734445642847000,6.286846923828125,8.523927688598633,3.420896530151367,-3.436643362045288
1772734445651263700,6.295263671875,8.523246765136719,3.419867753982544,-3.4393537044525146
1772734445661350000,6.305349853515625,8.522744178771973,3.4186413288116455,-3.44181752204895
1772734445671346200,6.31534619140625,8.52295970916748,3.4148874282836914,-3.4450089931488037
1772734445681705500,6.32570556640625,8.525290489196777,3.4074878692626953,-3.446568012237549
1772734445691436000,6.33543603515625,8.527657508850098,3.3994224071502686,-3.448678731918335
1772734445701499100,6.3454990234375,8.52806568145752,3.3969883918762207,-3.4500653743743896
1772734445711492000,6.3554921875,8.523175239562988,3.403715133666992,-3.4555163383483887
1772734445721530000,6.365530029296875,8.522077560424805,3.4058773517608643,-3.4560937881469727
1772734445751595000,6.395594970703125,8.530460357666016,3.3948826789855957,-3.4462151527404785
1772734445761637600,6.4056376953125,8.534096717834473,3.388756036758423,-3.4432425498962402
1772734445771655700,6.41565576171875,8.544585227966309,3.3658225536346436,-3.4397213459014893
1772734445782631400,6.42663134765625,8.55111312866211,3.353374719619751,-3.435657501220703
1772734445791705900,6.435705810546875,8.55501651763916,3.34706711769104,-3.4320878982543945
1772734445804250400,6.44825048828125,8.557791709899902,3.3428680896759033,-3.429260492324829
1772734445811773400,6.4557734375,8.55780029296875,3.342059373855591,-3.430027484893799
1772734445821830400,6.465830322265625,8.556336402893066,3.3431143760681152,-3.432649850845337
1772734445831809500,6.4758095703125,8.555825233459473,3.346193313598633,-3.4309232234954834
1772734445861919200,6.505919189453125,8.556583404541016,3.3420305252075195,-3.433088541030884
1772734445871908400,6.515908447265625,8.555231094360352,3.343865394592285,-3.434670925140381
1772734445882257000,6.5262568359375,8.554781913757324,3.345191240310669,-3.434499502182007
1772734445891961900,6.5359619140625,8.551076889038086,3.352515935897827,-3.4365835189819336
1772734445902020600,6.5460205078125,8.547683715820312,3.3568525314331055,-3.440788507461548
1772734445912013300,6.556013427734375,8.54428482055664,3.3592801094055176,-3.446855306625366
1772734445922042400,6.56604248046875,8.543144226074219,3.3577194213867188,-3.451202869415283
1772734445932071200,6.5760712890625,8.53907299041748,3.3646559715270996,-3.4545199871063232
1772734445942727400,6.5867275390625,8.535760879516602,3.37060809135437,-3.4569027423858643
1772734445952111900,6.59611181640625,8.533858299255371,3.3748157024383545,-3.4574949741363525
1772734445963752700,6.607752685546875,8.532150268554688,3.37985897064209,-3.456784963607788
1772734445972199700,6.61619970703125,8.533035278320312,3.3808999061584473,-3.4535787105560303
1772734445982565400,6.6265654296875,8.531939506530762,3.38614559173584,-3.4511470794677734
1772734445992250400,6.63625048828125,8.53670597076416,3.378248691558838,-3.4470975399017334
1772734446002294300,6.646294189453125,8.543373107910156,3.364389657974243,-3.4441323280334473
1772734446012301300,6.65630126953125,8.544297218322754,3.3604156970977783,-3.4457199573516846
1772734446022353400,6.666353515625,8.546075820922852,3.3533499240875244,-3.4481897354125977
1772734446032336600,6.676336669921875,8.54511547088623,3.350682020187378,-3.453160047531128
1772734446042377000,6.686376953125,8.543691635131836,3.3518102169036865,-3.455587863922119
1772734446082785000,6.726784912109375,8.534454345703125,3.3712611198425293,-3.4594898223876953
1772734446092635100,6.73663525390625,8.529867172241211,3.3837647438049316,-3.4585959911346436
1772734446103151900,6.74715185546875,8.52482795715332,3.3974342346191406,-3.45762038230896
1772734446112540200,6.7565400390625,8.52254581451416,3.4042041301727295,-3.4565892219543457
1772734446125074000,6.769073974609375,8.520366668701172,3.4135327339172363,-3.4527571201324463
1772734446132630000,6.776630126953125,8.521110534667969,3.416583299636841,-3.4479005336761475
1772734446142707700,6.786707763671875,8.52564525604248,3.4119033813476562,-3.4413182735443115
1772734446152703500,6.796703369140625,8.531164169311523,3.405541181564331,-3.4339349269866943
1772734446183146000,6.82714599609375,8.544533729553223,3.381998062133789,-3.423945426940918
1772734446192839700,6.836839599609375,8.545601844787598,3.3771464824676514,-3.4260711669921875
1772734446202887400,6.846887451171875,8.543987274169922,3.375967025756836,-3.4312562942504883
1772734446212898300,6.856898193359375,8.539697647094727,3.3788390159606934,-3.4390976428985596
1772734446222963700,6.866963623046875,8.536269187927246,3.380431890487671,-3.446038246154785
1772734446232960300,6.876960205078125,8.529314994812012,3.3897132873535156,-3.454130172729492
1772734446243010300,6.88701025390625,8.517778396606445,3.406127691268921,-3.466428279876709
1772734446253044000,6.8970439453125,8.51121997833252,3.414980888366699,-3.473818302154541
1772734446263719400,6.907719482421875,8.505369186401367,3.4203503131866455,-3.4828579425811768
1772734446285111000,6.929111083984375,8.489891052246094,3.4362711906433105,-3.504880428314209
1772734446293219600,6.937219482421875,8.481252670288086,3.4496443271636963,-3.5126471519470215
1772734446303288600,6.94728857421875,8.468437194824219,3.472174644470215,-3.5213563442230225
1772734446313287700,6.95728759765625,8.455103874206543,3.499429702758789,-3.526413917541504
1772734446323331800,6.967331787109375,8.442903518676758,3.5265917778015137,-3.528585910797119
1772734446333384000,6.977384033203125,8.434690475463867,3.5467967987060547,-3.527977228164673
1772734446343442000,6.98744189453125,8.432490348815918,3.5575907230377197,-3.5223634243011475
1772734446353435000,6.997434814453125,8.434913635253906,3.561434745788574,-3.5126631259918213
1772734446363479000,7.00747900390625,8.43974494934082,3.560507297515869,-3.501983880996704
1772734446383894800,7.027894775390625,8.448063850402832,3.5540614128112793,-3.4884450435638428
1772734446393576200,7.037576171875,8.46334171295166,3.534679889678955,-3.471062421798706
1772734446403620400,7.047620361328125,8.46568489074707,3.5295093059539795,-3.4706099033355713
1772734446413629200,7.057629150390625,8.482973098754883,3.5064969062805176,-3.4516708850860596
1772734446424299500,7.068299560546875,8.494316101074219,3.4923441410064697,-3.438098669052124
1772734446433693000,7.07769287109375,8.502975463867188,3.4800808429718018,-3.4291157722473145
1772734446446222600,7.09022265625,8.5142822265625,3.4629831314086914,-3.4183542728424072
1772734446453772800,7.097772705078125,8.520782470703125,3.4511044025421143,-3.4141666889190674
1772734446463829500,7.10782958984375,8.528586387634277,3.439136266708374,-3.4067490100860596
1772734446484180000,7.128179931640625,8.540305137634277,3.4280481338500977,-3.388518810272217
1772734446493911800,7.137911865234375,8.542167663574219,3.433075428009033,-3.378718852996826
1772734446503963100,7.147963134765625,8.541668891906738,3.4376473426818848,-3.3753302097320557
1772734446513922800,7.1579228515625,8.545755386352539,3.445794105529785,-3.356628656387329
1772734446523956000,7.1679560546875,8.551872253417969,3.443640947341919,-3.343233585357666
1772734446533943000,7.177943115234375,8.55920124053955,3.4367129802703857,-3.33158540725708
1772734446543967700,7.1879677734375,8.56784725189209,3.4272871017456055,-3.319049119949341
1772734446553921800,7.197921875,8.577157020568848,3.41577410697937,-3.3068485260009766
1772734446563922700,7.207922607421875,8.585875511169434,3.4082834720611572,-3.291919469833374
1772734446573911000,7.2179111328125,8.593975067138672,3.4057676792144775,-3.273336410522461
1772734446605515300,7.249515380859375,8.6107816696167,3.443773031234741,-3.188300132751465
1772734446613926100,7.257926025390625,8.614907264709473,3.4616177082061768,-3.157684087753296
1772734446623963000,7.267962890625,8.62081241607666,3.486593723297119,-3.1137826442718506
1772734446633922800,7.2779228515625,8.628314018249512,3.5122454166412354,-3.063775062561035
1772734446643939000,7.28793896484375,8.630983352661133,3.5239808559417725,-3.0427074432373047
1772734446653955300,7.297955322265625,8.6515474319458,3.545964002609253,-2.9575753211975098
1772734446664020200,7.308020263671875,8.6697359085083,3.544808864593506,-2.905235767364502
1772734446674015500,7.318015380859375,8.693763732910156,3.530377149581909,-2.850491523742676
1772734446684372200,7.328372314453125,8.704132080078125,3.5219526290893555,-2.8291890621185303
1772734446704182300,7.348182373046875,8.76865005493164,3.4580204486846924,-2.706151008605957
1772734446714184700,7.358184814453125,8.820390701293945,3.4057610034942627,-2.6022839546203613
1772734446724230100,7.368230224609375,8.8488130569458,3.3766889572143555,-2.5430054664611816
1772734446734274300,7.3782744140625,8.874017715454102,3.3518636226654053,-2.4874086380004883
1772734446744949000,7.388948974609375,8.898118019104004,3.3284542560577393,-2.432133674621582
1772734446754334200,7.398334228515625,8.91727066040039,3.3094875812530518,-2.3874592781066895
1772734446766877200,7.410877197265625,8.94039249420166,3.288264513015747,-2.3296093940734863
1772734446774431500,7.418431396484375,8.952136039733887,3.2772955894470215,-2.299776077270508
1772734446784805600,7.4288056640625,8.967131614685059,3.263054370880127,-2.261286973953247
1772734446794493000,7.438492919921875,8.97336196899414,3.252639055252075,-2.251558303833008
1772734446814552000,7.458552001953125,9.00489616394043,3.214449644088745,-2.179346799850464
1772734446824617700,7.46861767578125,9.015871047973633,3.199169635772705,-2.1563339233398438
1772734446834614800,7.47861474609375,9.02675724029541,3.1872341632843018,-2.1282782554626465
1772734446844660000,7.488659912109375,9.032015800476074,3.1806957721710205,-2.115718364715576
1772734446854679600,7.498679443359375,9.056317329406738,3.1511871814727783,-2.0551209449768066
1772734446864741400,7.508741455078125,9.077441215515137,3.123122215270996,-2.0041372776031494
1772734446874739500,7.518739501953125,9.0986967086792,3.0885376930236816,-1.9608792066574097
1772734446885097000,7.529096923828125,9.122200012207031,3.0473601818084717,-1.9155826568603516
1772734446894894300,7.538894287109375,9.131562232971191,3.0317835807800293,-1.895583152770996
1772734446905488000,7.54948779296875,9.169322967529297,2.9607980251312256,-1.8241665363311768
1772734446926568700,7.570568603515625,9.217537879943848,2.8692691326141357,-1.7247278690338135
1772734446934979600,7.5789794921875,9.236968040466309,2.8314828872680664,-1.682708501815796
1772734446945041400,7.58904150390625,9.246587753295898,2.8134119510650635,-1.660030484199524
1772734446955034000,7.5990341796875,9.270204544067383,2.7663462162017822,-1.6065551042556763
1772734446965075200,7.6090751953125,9.293466567993164,2.718378782272339,-1.5531542301177979
1772734446975104800,7.619104736328125,9.316399574279785,2.670139789581299,-1.4984798431396484
1772734446985471200,7.62947119140625,9.349912643432617,2.601151943206787,-1.4083797931671143
1772734446995148300,7.639148193359375,9.367083549499512,2.5667953491210938,-1.3563544750213623
1772734447005194000,7.649194091796875,9.382559776306152,2.5361037254333496,-1.306191086769104
1772734447015212000,7.6592119140625,9.396007537841797,2.5085132122039795,-1.262056827545166
1772734447035269600,7.67926953125,9.419668197631836,2.4532217979431152,-1.1924480199813843
1772734447045310500,7.689310546875,9.424101829528809,2.442467451095581,-1.1794235706329346
1772734447055345700,7.699345703125,9.438787460327148,2.39656400680542,-1.1559233665466309
1772734447066013700,7.710013671875,9.44720458984375,2.3691728115081787,-1.143562912940979
1772734447075397000,7.719397216796875,9.453543663024902,2.3481531143188477,-1.1344918012619019
1772734447088243200,7.7322431640625,9.459064483642578,2.3270413875579834,-1.1319752931594849
1772734447095710200,7.739710205078125,9.460813522338867,2.3206422328948975,-1.1304914951324463
1772734447105517600,7.749517578125,9.462542533874512,2.3150250911712646,-1.1275395154953003
1772734447115505200,7.759505126953125,9.464800834655762,2.315859079360962,-1.106675386428833
1772734447135588600,7.779588623046875,9.468994140625,2.3098626136779785,-1.0830858945846558
1772734447145649400,7.7896494140625,9.471320152282715,2.2917733192443848,-1.1010198593139648
1772734447155652900,7.79965283203125,9.472620964050293,2.2798962593078613,-1.114413857460022
1772734447165693200,7.809693115234375,9.473466873168945,2.275517463684082,-1.1161677837371826
1772734447175705300,7.819705322265625,9.475095748901367,2.2517895698547363,-1.1499526500701904
1772734447186080500,7.83008056640625,9.476967811584473,2.232924461364746,-1.1711198091506958
1772734447195766800,7.839766845703125,9.477416038513184,2.227627992630005,-1.1775603294372559
1772734447205798100,7.849798095703125,9.481668472290039,2.187805414199829,-1.2173089981079102
1772734447215781400,7.859781494140625,9.484691619873047,2.1610043048858643,-1.2414008378982544
1772734447226414600,7.87041455078125,9.486407279968262,2.1381852626800537,-1.2675297260284424
1772734447235769300,7.879769287109375,9.48654556274414,2.1217143535614014,-1.2938957214355469
1772734447247397400,7.8913974609375,9.483621597290039,2.110624313354492,-1.3328832387924194
1772734447255808500,7.89980859375,9.47816276550293,2.1145195960998535,-1.3651515245437622
1772734447265836000,7.9098359375,9.468297004699707,2.1335599422454834,-1.4034476280212402
1772734447275802600,7.919802734375,9.455138206481934,2.165287971496582,-1.443009853363037
1772734447286126300,7.930126220703125,9.438202857971191,2.209801197052002,-1.4857605695724487
1772734447295829800,7.939829833984375,9.41993236541748,2.260176181793213,-1.5254063606262207
1772734447305860000,7.949860107421875,9.400734901428223,2.313992738723755,-1.562694787979126
1772734447315825200,7.9598251953125,9.382233619689941,2.3641788959503174,-1.5983587503433228
1772734447325837000,7.969837158203125,9.364253997802734,2.409599781036377,-1.6355315446853638
1772734447345879800,7.9898798828125,9.328607559204102,2.4823362827301025,-1.727851152420044
1772734447355849700,7.999849609375,9.321497917175293,2.4937644004821777,-1.749627947807312
1772734447365864200,8.0098642578125,9.304515838623047,2.5032434463500977,-1.8248695135116577
1772734447375854300,8.019854248046874,9.29677963256836,2.4975502490997314,-1.8715020418167114
1772734447386802700,8.030802734375,9.291175842285156,2.4837584495544434,-1.9171264171600342
1772734447395863000,8.039863037109376,9.287832260131836,2.4641618728637695,-1.9581819772720337
1772734447408360200,8.052360107421874,9.288196563720703,2.418560266494751,-2.0125536918640137
1772734447415881500,8.059881591796875,9.287662506103516,2.4136037826538086,-2.0209484100341797
1772734447425906200,8.06990625,9.298149108886719,2.322796583175659,-2.0783228874206543
1772734447435868400,8.079868408203126,9.306076049804688,2.263026237487793,-2.1085638999938965
1772734447455975000,8.099974853515626,9.317330360412598,2.1555142402648926,-2.170600414276123
1772734447475894000,8.11989404296875,9.319319725036621,2.092776298522949,-2.2228262424468994
1772734447486224400,8.130224365234374,9.337608337402344,1.9706995487213135,-2.2573893070220947
1772734447495921000,8.1399208984375,9.341373443603516,1.9382041692733765,-2.2699100971221924
1772734447505967600,8.149967529296875,9.366787910461426,1.771924614906311,-2.300858497619629
1772734447515943400,8.159943359375,9.380901336669922,1.6610400676727295,-2.325946092605591
1772734447525961200,8.169961181640625,9.39398193359375,1.5520778894424438,-2.3483071327209473
1772734447535992300,8.179992431640626,9.406225204467773,1.4483709335327148,-2.365488052368164
1772734447546634500,8.190634521484375,9.416234016418457,1.3414777517318726,-2.3885903358459473
1772734447567639600,8.2116396484375,9.432440757751465,1.1318758726119995,-2.432758092880249
1772734447576031700,8.22003173828125,9.435982704162598,1.0471848249435425,-2.456831455230713
1772734447586401800,8.23040185546875,9.438308715820312,0.9420695900917053,-2.490222930908203
1772734447596072400,8.240072509765625,9.436593055725098,0.9023072123527527,-2.5113606452941895
1772734447606102000,8.25010205078125,9.44298267364502,0.7452566623687744,-2.5387139320373535
1772734447616091400,8.26009130859375,9.444424629211426,0.6574117541313171,-2.5575461387634277
1772734447626129400,8.27012939453125,9.44375228881836,0.6249943375587463,-2.5681354999542236
1772734447636098800,8.280098876953126,9.442890167236328,0.5592955946922302,-2.586388349533081
1772734447646186200,8.290186279296876,9.441493034362793,0.5022326707839966,-2.6031413078308105
1772734447656124000,8.3001240234375,9.438231468200684,0.43526312708854675,-2.626922130584717
1772734447666145800,8.310145751953126,9.434086799621582,0.40705257654190063,-2.6462607383728027
1772734447676139500,8.320139404296874,9.429388999938965,0.38775399327278137,-2.665832281112671
1772734447686512600,8.3305126953125,9.426651954650879,0.3825695216655731,-2.6762404441833496
1772734447696210200,8.340210205078124,9.419913291931152,0.36981436610221863,-2.7016382217407227
1772734447706841000,8.350841064453125,9.417488098144531,0.36920303106307983,-2.7101664543151855
1772734447716231700,8.360231689453125,9.410072326660156,0.36416882276535034,-2.7364795207977295
1772734447728764700,8.3727646484375,9.404632568359375,0.36083289980888367,-2.755553722381592
1772734447736299000,8.380299072265625,9.401673316955566,0.358950138092041,-2.7658793926239014
1772734447746330400,8.390330322265624,9.399773597717285,0.3587443232536316,-2.772353172302246
1772734447756327400,8.400327392578125,9.396695137023926,0.35613858699798584,-2.7831058502197266
1772734447766381300,8.41038134765625,9.394598007202148,0.3530404269695282,-2.79056715965271
1772734447776380000,8.4203798828125,9.391304016113281,0.35488632321357727,-2.8014020919799805
1772734447786718700,8.43071875,9.387381553649902,0.36170777678489685,-2.813647508621216
1772734447796399600,8.440399658203125,9.383524894714355,0.36851635575294495,-2.8256051540374756
1772734447806455600,8.45045556640625,9.380730628967285,0.3788074553012848,-2.833512306213379
1772734447816439300,8.460439208984376,9.378511428833008,0.3943544924259186,-2.838728904724121
1772734447826478800,8.470478759765625,9.37800121307373,0.4009101390838623,-2.8394975662231445
1772734447836462800,8.480462890625,9.375534057617188,0.4245475232601166,-2.844205856323242
1772734447846515200,8.49051513671875,9.375323295593262,0.43349525332450867,-2.8435521125793457
1772734447876529700,8.52052978515625,9.381606101989746,0.4297555387020111,-2.8233258724212646
1772734447888489200,8.5324892578125,9.384939193725586,0.42196759581565857,-2.8134043216705322
1772734447896614700,8.54061474609375,9.387474060058594,0.41404592990875244,-2.8061134815216064
1772734447906664000,8.550663818359375,9.389575958251953,0.40744712948799133,-2.8000404834747314
1772734447916683500,8.56068359375,9.392977714538574,0.4042567312717438,-2.7890713214874268
1772734447926765800,8.570765869140626,9.39670467376709,0.4043264389038086,-2.776479721069336
1772734447936799000,8.580799072265625,9.39956283569336,0.40277162194252014,-2.767016887664795
1772734447946846000,8.590845947265626,9.402831077575684,0.4004680812358856,-2.756225109100342
1772734447956864500,8.600864501953126,9.406484603881836,0.39321058988571167,-2.744779586791992
1772734447987294500,8.63129443359375,9.416193962097168,0.3618561029434204,-2.7156479358673096
1772734447996998400,8.640998291015626,9.42219352722168,0.34027546644210815,-2.697566270828247
1772734448007065000,8.651065185546875,9.42640209197998,0.326181560754776,-2.6845736503601074
1772734448017065200,8.661065185546875,9.429944038391113,0.3149222135543823,-2.673457622528076
1772734448027719200,8.67171923828125,9.433944702148438,0.3034951686859131,-2.6606342792510986
1772734448037128200,8.681128173828125,9.437958717346191,0.2923298478126526,-2.647613048553467
1772734448049675800,8.69367578125,9.440420150756836,0.2865155339241028,-2.6394639015197754
1772734448057212400,8.70121240234375,9.44561767578125,0.2591710090637207,-2.6236469745635986
1772734448087667700,8.731667724609375,9.45591926574707,0.18924985826015472,-2.5923287868499756
1772734448097359400,8.741359375,9.460174560546875,0.16328977048397064,-2.5785317420959473
1772734448107415000,8.7514150390625,9.462207794189453,0.15205241739749908,-2.5717477798461914
1772734448117438200,8.761438232421876,9.46715259552002,0.12041494250297546,-2.555173873901367
1772734448127497200,8.771497314453125,9.468472480773926,0.11467202007770538,-2.5505404472351074
1772734448137474800,8.781474853515626,9.470656394958496,0.10076770186424255,-2.5430121421813965
1772734448147521000,8.79152099609375,9.474138259887695,0.06222023814916611,-2.5312490463256836
1772734448157512200,8.80151220703125,9.474156379699707,0.05447773262858391,-2.531358003616333
1772734448167560000,8.811559814453124,9.477198600769043,-0.011172697879374027,-2.520507574081421
1772734448197549800,8.8415498046875,9.477219581604004,-0.1594816893339157,-2.5154013633728027
1772734448209233700,8.853233642578125,9.476418495178223,-0.21437808871269226,-2.514345407485962
1772734448217589200,8.86158935546875,9.473886489868164,-0.22196342051029205,-2.5232126712799072
1772734448227604700,8.871604736328125,9.474040985107422,-0.2900404930114746,-2.5157124996185303
1772734448237589000,8.881589111328125,9.473389625549316,-0.330659955739975,-2.5131542682647705
1772734448247637200,8.89163720703125,9.472185134887695,-0.3726482093334198,-2.5118162631988525
1772734448257614600,8.901614501953125,9.471144676208496,-0.4140377640724182,-2.509258985519409
1772734448267623400,8.91162353515625,9.470108032226562,-0.45450296998023987,-2.5061657428741455
1772734448297630700,8.941630615234375,9.466161727905273,-0.5607313513755798,-2.4995498657226562
1772734448307662600,8.95166259765625,9.46493911743164,-0.5940242409706116,-2.4964895248413086
1772734448317645600,8.9616455078125,9.463830947875977,-0.6090609431266785,-2.4970650672912598
1772734448327674600,8.971674560546875,9.462924003601074,-0.6454192399978638,-2.4913618564605713
1772734448337682400,8.981682373046874,9.463052749633789,-0.6552473902702332,-2.4883079528808594
1772734448348338400,8.99233837890625,9.463837623596191,-0.6517729163169861,-2.4862334728240967
1772734448357744400,9.001744384765624,9.464917182922363,-0.6347245573997498,-2.486534595489502
1772734448370295000,9.014294921875,9.464470863342285,-0.6287757754325867,-2.48974347114563
1772734448397886000,9.041885986328126,9.466851234436035,-0.5428426861763,-2.5008881092071533
1772734448407949000,9.051948974609376,9.46715259552002,-0.5315125584602356,-2.50217866897583
1772734448417959200,9.061959228515626,9.467133522033691,-0.5278757214546204,-2.5030221939086914
1772734448428005600,9.072005615234374,9.467616081237793,-0.5279396176338196,-2.5011818408966064
1772734448438018800,9.082018798828125,9.46738338470459,-0.5287067294120789,-2.5019009113311768
1772734448448085500,9.09208544921875,9.467119216918945,-0.5304362177848816,-2.502533435821533
1772734448458095400,9.102095458984374,9.466146469116211,-0.5291097164154053,-2.5064923763275146
1772734448468148200,9.112148193359374,9.465521812438965,-0.5270680785179138,-2.5092809200286865
1772734448478171400,9.12217138671875,9.46526050567627,-0.5194829702377319,-2.5118463039398193
1772734448498290700,9.142290771484374,9.465869903564453,-0.49408861994743347,-2.5146706104278564
1772734448518403000,9.162403076171875,9.466004371643066,-0.4820769727230072,-2.516493797302246
1772734448530090500,9.174090576171874,9.465310096740723,-0.48394525051116943,-2.518746852874756
1772734448538546000,9.1825458984375,9.46328067779541,-0.4921743869781494,-2.5247724056243896
1772734448548602000,9.19260205078125,9.46223258972168,-0.5062687397003174,-2.5259108543395996
1772734448558643500,9.2026435546875,9.462108612060547,-0.5113317966461182,-2.525357246398926
1772734448568737300,9.2127373046875,9.46207046508789,-0.51780104637146,-2.5241823196411133
1772734448578749400,9.22274951171875,9.461273193359375,-0.5245133638381958,-2.5257835388183594
1772734448589103600,9.233103515625,9.459232330322266,-0.5363057851791382,-2.53094744682312
1772734448598803200,9.24280322265625,9.458675384521484,-0.5443540811538696,-2.5313079357147217
1772734448608874000,9.2528740234375,9.458712577819824,-0.5602091550827026,-2.5277092456817627
1772734448618861000,9.262861083984374,9.459141731262207,-0.5718701481819153,-2.523486852645874
1772734448628893200,9.27289306640625,9.459383964538574,-0.5871837139129639,-2.5190584659576416
1772734448638892300,9.282892333984375,9.458939552307129,-0.6035369038581848,-2.516862630844116
1772734448648967700,9.2929677734375,9.458341598510742,-0.623702347278595,-2.514191150665283
1772734448658963700,9.302963623046875,9.458833694458008,-0.6417053937911987,-2.5078015327453613
1772734448669604000,9.31360400390625,9.46126937866211,-0.656581461429596,-2.4947290420532227
1772734448678992100,9.3229921875,9.462756156921387,-0.6661983728408813,-2.4865267276763916
1772734448691844600,9.3358447265625,9.465919494628906,-0.6719759702682495,-2.472893476486206
1772734448721160000,9.365159912109375,9.475363731384277,-0.657318115234375,-2.4404497146606445
1772734448731241500,9.375241455078125,9.478734970092773,-0.648304283618927,-2.429748773574829
1772734448741275000,9.38527490234375,9.480353355407715,-0.6422265768051147,-2.425042152404785
1772734448751337200,9.395337158203125,9.483332633972168,-0.6316407322883606,-2.416161060333252
1772734448761474300,9.405474365234374,9.484878540039062,-0.6247671246528625,-2.4118740558624268
1772734448771428000,9.415427978515625,9.486032485961914,-0.6192867755889893,-2.4087448120117188
1772734448781449000,9.425448974609376,9.486618995666504,-0.6137622594833374,-2.4078495502471924
1772734448791817200,9.435817138671876,9.48618221282959,-0.6047815680503845,-2.411839485168457
1772734448801527000,9.445527099609375,9.485445976257324,-0.6025592088699341,-2.4152913093566895
1772734448821622300,9.465622314453125,9.48326587677002,-0.6032393574714661,-2.423665761947632
1772734448832296700,9.476296630859375,9.480961799621582,-0.6082547307014465,-2.4314138889312744
1772734448841705500,9.48570556640625,9.479236602783203,-0.6084527373313904,-2.4380834102630615
1772734448853431300,9.497431396484375,9.477254867553711,-0.6124147772789001,-2.4447848796844482
1772734448861828400,9.505828369140625,9.476524353027344,-0.6071858406066895,-2.4489171504974365
1772734448871889400,9.515889404296875,9.473113059997559,-0.6355397701263428,-2.454918146133423
1772734448881918700,9.525918701171875,9.471339225769043,-0.6596049070358276,-2.455411195755005
1772734448892316200,9.536316162109374,9.468766212463379,-0.688541054725647,-2.4573917388916016
1772734448902021000,9.546021240234374,9.466043472290039,-0.7266373634338379,-2.4569125175476074
1772734448922130000,9.5661298828125,9.46096420288086,-0.8084659576416016,-2.4509050846099854
1772734448932223700,9.5762236328125,9.461315155029297,-0.8336248397827148,-2.441101312637329
1772734448942255600,9.586255615234375,9.461649894714355,-0.8403751254081726,-2.4374845027923584
1772734448952328700,9.59632861328125,9.461230278015137,-0.8397265672683716,-2.439337968826294
1772734448962342400,9.60634228515625,9.460350036621094,-0.8355484008789062,-2.4441845417022705
1772734448972393200,9.616393310546876,9.46008586883545,-0.8224522471427917,-2.449638605117798
1772734448982384400,9.62638427734375,9.460442543029785,-0.8267043232917786,-2.4468297958374023
1772734448993334500,9.63733447265625,9.459696769714355,-0.827972412109375,-2.449281692504883
1772734449002438100,9.646438232421875,9.464167594909668,-0.8346377015113831,-2.429669141769409
1772734449014967300,9.65896728515625,9.468537330627441,-0.835868239402771,-2.4121572971343994
1772734449032531700,9.67653173828125,9.472565650939941,-0.831158459186554,-2.397928237915039
1772734449042532600,9.68653271484375,9.478899002075195,-0.8156778216362,-2.378136396408081
1772734449052582100,9.69658203125,9.482258796691895,-0.8050803542137146,-2.3683319091796875
1772734449062564000,9.706564208984375,9.484545707702637,-0.7995917201042175,-2.3610219955444336
1772734449072595000,9.716594970703126,9.485268592834473,-0.795989990234375,-2.359337329864502
1772734449082605600,9.72660546875,9.485716819763184,-0.8077701926231384,-2.353522300720215
1772734449092964600,9.736964599609376,9.484102249145508,-0.8187480568885803,-2.3562352657318115
1772734449102637800,9.746637939453125,9.483658790588379,-0.8229791522026062,-2.3565447330474854
1772734449112664600,9.75666455078125,9.485480308532715,-0.8383592367172241,-2.3437581062316895
1772734449122665200,9.766665283203125,9.486014366149902,-0.8422304391860962,-2.340207576751709
1772734449142729500,9.7867294921875,9.494091987609863,-0.8098970055580139,-2.3187620639801025
1772734449153369900,9.797369873046875,9.497396469116211,-0.7763251066207886,-2.31671404838562
1772734449162773500,9.8067734375,9.498294830322266,-0.7628960609436035,-2.317493200302124
1772734449174411800,9.818411865234374,9.506505012512207,-0.6870830059051514,-2.307523727416992
1772734449182833200,9.826833251953126,9.509855270385742,-0.6507388949394226,-2.304250717163086
1772734449193190000,9.83718994140625,9.513304710388184,-0.6102295517921448,-2.301095485687256
1772734449202881500,9.846881591796874,9.515217781066895,-0.5799990296363831,-2.301001787185669
1772734449212932900,9.856932861328126,9.516242027282715,-0.5564499497413635,-2.302581310272217
1772734449222916600,9.86691650390625,9.517093658447266,-0.5372454524040222,-2.3036270141601562
1772734449242951700,9.88695166015625,9.523319244384766,-0.48647594451904297,-2.289130210876465
1772734449253006000,9.897006103515626,9.527582168579102,-0.4492339491844177,-2.278979778289795
1772734449262992100,9.9069921875,9.529773712158203,-0.430510014295578,-2.273427724838257
1772734449273034200,9.9170341796875,9.534575462341309,-0.3716132342815399,-2.2636613845825195
1772734449283037400,9.927037353515624,9.542046546936035,-0.2591767907142639,-2.2477922439575195
1772734449293400300,9.937400390625,9.547343254089355,-0.1798289716243744,-2.2329981327056885
1772734449303079200,9.9470791015625,9.551837921142578,-0.10735402256250381,-2.218386650085449
1772734449313715500,9.957715576171875,9.555782318115234,-0.03339278697967529,-2.2036986351013184
1772734449323117600,9.96711767578125,9.55816650390625,0.027846550568938255,-2.1934115886688232
1772734449335682000,9.97968212890625,9.558812141418457,0.09241050481796265,-2.1888270378112793
1772734449353320700,9.99732080078125,9.559086799621582,0.14947108924388885,-2.1844704151153564
1772734449363359500,10.007359375,9.55884075164795,0.20391400158405304,-2.181138038635254
1772734449373440300,10.017440185546874,9.559198379516602,0.23133020102977753,-2.1768295764923096
1772734449383455700,10.027455810546876,9.559882164001465,0.24939069151878357,-2.1718313694000244
1772734449393775600,10.037775634765625,9.560766220092773,0.25850847363471985,-2.166867971420288
1772734449403464200,10.047464111328125,9.561572074890137,0.26194489002227783,-2.162893772125244
1772734449413513200,10.05751318359375,9.562588691711426,0.26359379291534424,-2.1581947803497314
1772734449423509000,10.067509033203125,9.56397819519043,0.26562681794166565,-2.1517770290374756
1772734449433533200,10.077533203125,9.565683364868164,0.2704492211341858,-2.1435818672180176
1772734449443536000,10.087535888671875,9.567046165466309,0.276819109916687,-2.136673927307129
1772734449463564000,10.10756396484375,9.569273948669434,0.28995341062545776,-2.1249256134033203
1772734449474204000,10.118203857421875,9.569945335388184,0.2916487455368042,-2.12166428565979
1772734449483612000,10.12761181640625,9.570618629455566,0.2892460823059082,-2.1189606189727783
1772734449495614500,10.139614501953124,9.570862770080566,0.28328219056129456,-2.118659496307373
1772734449503677700,10.147677734375,9.57083797454834,0.27784818410873413,-2.1194944381713867
1772734449513721300,10.157721435546875,9.5711088180542,0.274606853723526,-2.1186907291412354
1772734449523721700,10.1677216796875,9.572189331054688,0.2703917920589447,-2.114344835281372
1772734449533763300,10.177763427734375,9.572792053222656,0.2676140367984772,-2.111971616744995
1772734449543772000,10.18777197265625,9.575461387634277,0.25683853030204773,-2.101180076599121
1772734449553800200,10.19780029296875,9.576399803161621,0.25253579020500183,-2.0974245071411133
1772734449563807000,10.207806884765626,9.579307556152344,0.24096699059009552,-2.0854713916778564
1772734449573853700,10.217853759765624,9.5809965133667,0.23459969460964203,-2.0784292221069336
1772734449583832600,10.22783251953125,9.581413269042969,0.230913445353508,-2.0769152641296387
1772734449594186800,10.238186767578124,9.584105491638184,0.22184433043003082,-2.0654544830322266
1772734449603875300,10.247875244140625,9.585671424865723,0.2167435735464096,-2.058713674545288
1772734449613922000,10.257922119140625,9.587159156799316,0.2139645367860794,-2.0520689487457275
1772734449623915000,10.2679150390625,9.588290214538574,0.21553145349025726,-2.0466134548187256
1772734449634549000,10.278549072265625,9.589569091796875,0.2218797206878662,-2.0399329662323
1772734449643947500,10.287947509765624,9.591004371643066,0.23131351172924042,-2.0321216583251953
1772734449656481500,10.3004814453125,9.593719482421875,0.24944837391376495,-2.0171027183532715
1772734449674031000,10.318031005859375,9.598854064941406,0.2877305746078491,-1.9873607158660889
1772734449684042200,10.328042236328125,9.602913856506348,0.31540000438690186,-1.9634052515029907
1772734449694393300,10.338393310546875,9.608160972595215,0.35009196400642395,-1.9315967559814453
1772734449704084200,10.348084228515624,9.613930702209473,0.38815754652023315,-1.895276427268982
1772734449714106400,10.3581064453125,9.620768547058105,0.431747704744339,-1.8506240844726562
1772734449724115000,10.368114990234375,9.628304481506348,0.4764116406440735,-1.7997721433639526
1772734449734163000,10.378162841796875,9.631036758422852,0.4963699281215668,-1.7796461582183838
1772734449744142600,10.388142578125,9.644837379455566,0.5574225187301636,-1.6842750310897827
1772734449754251000,10.3982509765625,9.653488159179688,0.5910752415657043,-1.6220941543579102
1772734449764201000,10.408200927734375,9.65650749206543,0.6047495603561401,-1.5989168882369995
1772734449784244200,10.428244140625,9.672189712524414,0.6596004962921143,-1.477856993675232
1772734449795196000,10.43919580078125,9.683110237121582,0.7014759182929993,-1.3840850591659546
1772734449804305700,10.4483056640625,9.682637214660645,0.7017897963523865,-1.3872379064559937
1772734449815943400,10.459943359375,9.69056224822998,0.7572262287139893,-1.3000046014785767
1772734449824359200,10.468359130859374,9.692564964294434,0.7911756634712219,-1.264360785484314
1772734449834388000,10.478387939453125,9.693236351013184,0.8448846340179443,-1.2238130569458008
1772734449844383000,10.488383056640625,9.691792488098145,0.9152794480323792,-1.1839796304702759
1772734449854438100,10.498438232421876,9.687353134155273,1.0031620264053345,-1.148581862449646
1772734449864425000,10.508425048828125,9.68038272857666,1.1016544103622437,-1.116661787033081
1772734449884459300,10.528459228515626,9.661517143249512,1.3095101118087769,-1.053871989250183
1772734449894809000,10.53880908203125,9.649760246276855,1.4123144149780273,-1.0285359621047974
1772734449904484000,10.548484130859375,9.637937545776367,1.5048716068267822,-1.0079203844070435
1772734449914503400,10.55850341796875,9.632712364196777,1.5430750846862793,-1.0000842809677124
1772734449924505000,10.568505126953125,9.60921859741211,1.7001453638076782,-0.9709873795509338
1772734449934541300,10.578541259765625,9.602524757385254,1.740909457206726,-0.9649559259414673
1772734449944541000,10.588541015625,9.570263862609863,1.9225372076034546,-0.9403725266456604
1772734449955173600,10.599173583984374,9.54493522644043,2.048004150390625,-0.9328909516334534
1772734449964561700,10.608561767578125,9.520081520080566,2.1635687351226807,-0.9259674549102783
1772734449994927900,10.638927978515625,9.456656455993652,2.4346885681152344,-0.9024051427841187
1772734450004633900,10.6486337890625,9.427680969238281,2.5580625534057617,-0.8634403944015503
1772734450014711800,10.6587119140625,9.415075302124023,2.612156391143799,-0.838679313659668
1772734450024727800,10.668727783203124,9.408493041992188,2.6445980072021484,-0.8103996515274048
1772734450034795800,10.678795654296875,9.407018661499023,2.6599931716918945,-0.7764226794242859
1772734450044816600,10.688816650390624,9.409733772277832,2.660982131958008,-0.7392346858978271
1772734450054860000,10.698860107421876,9.416502952575684,2.6472067832946777,-0.7015359997749329
1772734450064837600,10.708837646484374,9.426384925842285,2.622072219848633,-0.6621074080467224
1772734450074865200,10.718865234375,9.437748908996582,2.5911829471588135,-0.6205339431762695
1772734450104919000,10.7489189453125,9.46895980834961,2.495744466781616,-0.5295629501342773
1772734450115569000,10.75956884765625,9.483864784240723,2.4529006481170654,-0.4582248330116272
1772734450124966400,10.76896630859375,9.48978042602539,2.436889410018921,-0.4195517301559448
1772734450136662500,10.78066259765625,9.494780540466309,2.4263038635253906,-0.3641228675842285
1772734450145034200,10.7890341796875,9.497369766235352,2.4208545684814453,-0.33138957619667053
1772734450155074600,10.799074462890625,9.500667572021484,2.413879632949829,-0.2844237983226776
1772734450165078300,10.809078369140625,9.504836082458496,2.4027576446533203,-0.235017329454422
1772734450175132400,10.81913232421875,9.510437965393066,2.385427951812744,-0.17801626026630402
1772734450205185500,10.849185546875,9.53122615814209,2.3077828884124756,0.016353389248251915
1772734450215237000,10.859237060546874,9.538134574890137,2.277458906173706,0.08697375655174255
1772734450225213400,10.86921337890625,9.544642448425293,2.2460906505584717,0.15894275903701782
1772734450235282400,10.879282470703124,9.550423622131348,2.2149577140808105,0.2318544238805771
1772734450245241300,10.889241455078125,9.555415153503418,2.1843128204345703,0.30530765652656555
1772734450255261700,10.89926171875,9.556960105895996,2.1733922958374023,0.3335700035095215
1772734450265295400,10.90929541015625,9.56431770324707,2.1167383193969727,0.4622136950492859
1772734450275907000,10.919906982421875,9.570401191711426,2.0672881603240967,0.5514722466468811
1772734450285279200,10.929279296875,9.57686996459961,2.012742519378662,0.6346730589866638
1772734450305604000,10.94960400390625,9.594078063964844,1.8553394079208374,0.8256914019584656
1772734450315424300,10.95942431640625,9.59713077545166,1.8224562406539917,0.8626298308372498
1772734450325432600,10.9694326171875,9.61368465423584,1.650518536567688,1.0115635395050049
1772734450335485400,10.9794853515625,9.62324333190918,1.5307384729385376,1.1047263145446777
1772734450345546500,10.98954638671875,9.631180763244629,1.404956579208374,1.1986802816390991
1772734450355615200,10.999615234375,9.636601448059082,1.2770168781280518,1.2944215536117554
1772734450365622800,11.009622802734375,9.639060020446777,1.149497628211975,1.391969919204712
1772734450375679500,11.019679443359376,9.638165473937988,1.0190834999084473,1.4958677291870117
1772734450385697800,11.02969775390625,9.63477611541748,0.8827123045921326,1.6007158756256104
1772734450415834400,11.05983447265625,9.60945987701416,0.4217025935649872,1.9107147455215454
1772734450425852200,11.06985205078125,9.59555435180664,0.25123926997184753,2.008134126663208
1772734450436545300,11.080545166015625,9.578277587890625,0.05859842896461487,2.1032261848449707
1772734450445944600,11.089944580078125,9.56094741821289,-0.12016349285840988,2.1781275272369385
1772734450457604900,11.10160498046875,9.551694869995117,-0.20100392401218414,2.212491035461426
1772734450466057000,11.110056884765624,9.511250495910645,-0.5239304900169373,2.330665111541748
1772734450476164900,11.120164794921875,9.479827880859375,-0.7304242849349976,2.402026653289795
1772734450486182400,11.130182373046875,9.444908142089844,-0.9327203035354614,2.468627452850342
1772734450496568300,11.140568359375,9.40577220916748,-1.1327972412109375,2.533498525619507
1772734450516335900,11.1603359375,9.325284004211426,-1.4594447612762451,2.660731077194214
1772734450526321000,11.17032080078125,9.286835670471191,-1.590065598487854,2.719700813293457
1772734450536348200,11.18034814453125,9.257084846496582,-1.705413818359375,2.751061201095581
1772734450546351000,11.19035107421875,9.234305381774902,-1.7975679636001587,2.7688891887664795
1772734450556402400,11.20040234375,9.225008010864258,-1.8291525840759277,2.7791755199432373
1772734450566377700,11.210377685546876,9.213562965393066,-1.8853397369384766,2.7795934677124023
1772734450576408000,11.220407958984374,9.212210655212402,-1.9240785837173462,2.7574427127838135
1772734450586411300,11.230411376953125,9.213634490966797,-1.9260648488998413,2.7512898445129395
1772734450597381000,11.241381103515625,9.243122100830078,-1.8607699871063232,2.696779489517212
1772734450606446600,11.250446533203124,9.25031852722168,-1.8397490978240967,2.686506509780884
1772734450618957800,11.262957763671874,9.303211212158203,-1.6782914400100708,2.6084470748901367
1772734450626505200,11.270505126953125,9.323993682861328,-1.6138204336166382,2.5747058391571045
1772734450636561700,11.280561767578124,9.348193168640137,-1.5487217903137207,2.526486396789551
1772734450646534000,11.290533935546875,9.367036819458008,-1.5134037733078003,2.4776222705841064
1772734450656557300,11.300557373046875,9.38049602508545,-1.5048496723175049,2.431480884552002
1772734450666587000,11.3105869140625,9.388444900512695,-1.520768404006958,2.3905553817749023
1772734450676672000,11.320672119140625,9.390523910522461,-1.5271384716033936,2.378295421600342
1772734450686687700,11.330687744140626,9.393540382385254,-1.598868727684021,2.318490505218506
1772734450697064200,11.341064208984376,9.396724700927734,-1.6591148376464844,2.2625842094421387
1772734450716899000,11.360899169921876,9.405099868774414,-1.6644316911697388,2.223545551300049
1772734450726917400,11.37091748046875,9.41563892364502,-1.6537518501281738,2.1866040229797363
1772734450736981000,11.38098095703125,9.428963661193848,-1.6422736644744873,2.1372811794281006
1772734450747043000,11.39104296875,9.44086742401123,-1.639891266822815,2.085944175720215
1772734450757734100,11.401734130859374,9.444989204406738,-1.6439687013626099,2.063957929611206
1772734450767330000,11.411330078125,9.45105266571045,-1.7087701559066772,1.9819427728652954
1772734450778824000,11.422823974609376,9.449295997619629,-1.7774174213409424,1.92924165725708
1772734450787249700,11.431249755859374,9.446020126342773,-1.833085536956787,1.8928533792495728
1772734450797643500,11.4416435546875,9.441609382629395,-1.8992455005645752,1.8491272926330566
1772734450827455500,11.47145556640625,9.435824394226074,-2.0367259979248047,1.7283953428268433
1772734450837539800,11.481539794921876,9.434619903564453,-2.087759494781494,1.6731990575790405
1772734450847607600,11.491607666015625,9.428032875061035,-2.1570022106170654,1.621703863143921
1772734450857620200,11.5016201171875,9.423822402954102,-2.2370316982269287,1.5354583263397217
1772734450867688000,11.51168798828125,9.419413566589355,-2.298259973526001,1.4707295894622803
1772734450877765000,11.52176513671875,9.406105041503906,-2.3824682235717773,1.421059250831604
1772734450887781400,11.531781494140626,9.399209976196289,-2.42057466506958,1.4021644592285156
1772734450898156000,11.542156005859376,9.381726264953613,-2.485607862472534,1.4054712057113647
1772734450918584800,11.562584716796875,9.304577827453613,-2.753262996673584,1.419424057006836
1772734450927988200,11.57198828125,9.270830154418945,-2.858281135559082,1.4325881004333496
1772734450940537000,11.584537109375,9.228629112243652,-2.966275930404663,1.4845874309539795
1772734450948110800,11.59211083984375,9.200711250305176,-3.0372424125671387,1.5140832662582397
1772734450958196000,11.602196044921875,9.18511962890625,-3.078061819076538,1.5262700319290161
1772734450968208600,11.612208740234376,9.126734733581543,-3.2067923545837402,1.6092238426208496
1772734450978264600,11.6222646484375,9.087756156921387,-3.291924476623535,1.6571987867355347
1772734450988284700,11.63228466796875,9.049031257629395,-3.3767542839050293,1.6979230642318726
1772734450998675700,11.64267578125,9.009087562561035,-3.460726737976074,1.740719199180603
1772734451028452400,11.672452392578125,8.900423049926758,-3.655863046646118,1.8940777778625488
1772734451038537500,11.682537353515626,8.869710922241211,-3.700173854827881,1.9512375593185425
1772734451048548900,11.692548828125,8.84372615814209,-3.732626438140869,2.0065879821777344
1772734451058626600,11.70262646484375,8.82329273223877,-3.752263307571411,2.0592265129089355
1772734451068659000,11.712658935546875,8.817686080932617,-3.756882667541504,2.0747621059417725
1772734451079362800,11.72336279296875,8.796629905700684,-3.7564241886138916,2.1630911827087402
1772734451088767200,11.732767333984375,8.790973663330078,-3.7433063983917236,2.208357334136963
1772734451100736500,11.744736572265625,8.788704872131348,-3.7138617038726807,2.266338348388672
1772734451128974000,11.77297412109375,8.806782722473145,-3.613220453262329,2.3570339679718018
1772734451139031300,11.78303125,8.813349723815918,-3.5489861965179443,2.428983211517334
1772734451149084700,11.793084716796875,8.822577476501465,-3.5176897048950195,2.440976619720459
1772734451159160800,11.803160888671876,8.826523780822754,-3.460197687149048,2.5079665184020996
1772734451169166600,11.81316650390625,8.830955505371094,-3.422300338745117,2.5441043376922607
1772734451179224300,11.823224365234376,8.834236145019531,-3.3888230323791504,2.5773096084594727
1772734451189250300,11.833250244140626,8.834065437316895,-3.3652517795562744,2.6085920333862305
1772734451199635500,11.843635498046876,8.835672378540039,-3.3529229164123535,2.6190037727355957
1772734451209332500,11.85333251953125,8.830290794372559,-3.3447816371917725,2.6474125385284424
1772734451240096000,11.884095947265624,8.80550479888916,-3.3732502460479736,2.693446159362793
1772734451249753000,11.893753173828125,8.799324989318848,-3.3981387615203857,2.6823341846466064
1772734451262025200,11.906025146484374,8.78905963897705,-3.441887855529785,2.6601195335388184
1772734451269586200,11.913586181640625,8.781559944152832,-3.473844289779663,2.643293857574463
1772734451279652400,11.92365234375,8.778237342834473,-3.4903976917266846,2.6325013637542725
1772734451289656800,11.93365673828125,8.758115768432617,-3.565978527069092,2.597998857498169
1772734451300036400,11.944036376953125,8.743962287902832,-3.6144704818725586,2.57858943939209
1772734451309769200,11.953769287109376,8.729568481445312,-3.658641815185547,2.5650293827056885
1772734451339897300,11.9838974609375,8.68924617767334,-3.7784454822540283,2.527989387512207
1772734451349933300,11.993933349609375,8.67601203918457,-3.825516939163208,2.5025229454040527
1772734451360004400,12.00400439453125,8.658418655395508,-3.888514518737793,2.466097354888916
1772734451370019000,12.01401904296875,8.646141052246094,-3.90437650680542,2.4840445518493652
1772734451380075500,12.024075439453124,8.576550483703613,-4.10996150970459,2.391941547393799
1772734451390109000,12.03410888671875,8.514348030090332,-4.27410888671875,2.3255691528320312
1772734451401108500,12.0451083984375,8.434065818786621,-4.471468448638916,2.245637893676758
1772734451410207500,12.05420751953125,8.406816482543945,-4.531940937042236,2.226510524749756
1772734451421907700,12.06590771484375,8.285079002380371,-4.811315536499023,2.0926284790039062
1772734451450418700,12.094418701171875,8.172654151916504,-5.0696702003479,1.917433738708496
1772734451460481300,12.104481201171875,8.13979721069336,-5.152324199676514,1.8351150751113892
1772734451470554400,12.114554443359374,8.089815139770508,-5.274113655090332,1.705580711364746
1772734451480576800,12.12457666015625,8.052804946899414,-5.352692604064941,1.634441614151001
1772734451490952000,12.134951904296875,8.036413192749023,-5.384815216064453,1.6094163656234741
1772734451500975400,12.144975341796876,7.947393417358398,-5.538443565368652,1.5280593633651733
1772734451510684700,12.1546845703125,7.890289306640625,-5.627904415130615,1.4968005418777466
1772734451520748000,12.164748046875,7.8356475830078125,-5.7089691162109375,1.4767124652862549
1772734451530744300,12.174744384765624,7.814243316650391,-5.7389235496521,1.4740228652954102
1772734451561532700,12.20553271484375,7.808859348297119,-5.752376079559326,1.4499213695526123
1772734451570920400,12.21492041015625,7.853181838989258,-5.6899027824401855,1.4570245742797852
1772734451583455000,12.227455078125,7.937581539154053,-5.5670857429504395,1.474022626876831
1772734451591013600,12.235013671875,7.950843811035156,-5.545583724975586,1.483562707901001
1772734451601388300,12.24538818359375,8.081941604614258,-5.343265533447266,1.5172739028930664
1772734451611072500,12.255072509765625,8.168731689453125,-5.199248790740967,1.5524272918701172
1772734451621116400,12.265116455078125,8.2086181640625,-5.121253490447998,1.6005430221557617
1772734451631140000,12.27514013671875,8.34451961517334,-4.883899688720703,1.6391751766204834
1772734451641206300,12.285206298828125,8.423659324645996,-4.739505290985107,1.658140778541565
1772734451661250000,12.30525,8.569039344787598,-4.464488506317139,1.6763904094696045
1772734451671262500,12.315262451171876,8.638284683227539,-4.328985214233398,1.6763969659805298
1772734451681326800,12.325326904296874,8.70566177368164,-4.192731857299805,1.674168586730957
1772734451691318500,12.335318603515624,8.7716064453125,-4.05511999130249,1.6689250469207764
1772734451701680000,12.34568017578125,8.831596374511719,-3.928785562515259,1.6546682119369507
1772734451711410400,12.355410400390625,8.87124252319336,-3.8405654430389404,1.6496973037719727
1772734451722086000,12.3660859375,8.897425651550293,-3.7823102474212646,1.6432698965072632
1772734451731474400,12.375474365234375,8.910966873168945,-3.7529077529907227,1.6373003721237183
1772734451743121700,12.38712158203125,8.917086601257324,-3.740854501724243,1.6315568685531616
1772734451761620700,12.405620849609376,8.903905868530273,-3.779254913330078,1.6149561405181885
1772734451771616800,12.41561669921875,8.889921188354492,-3.8179571628570557,1.600903034210205
1772734451781670000,12.425669921875,8.8724946975708,-3.863053798675537,1.5893522500991821
1772734451791702300,12.435702392578126,8.853326797485352,-3.9108693599700928,1.5792701244354248
1772734451802085600,12.446085693359375,8.831737518310547,-3.9623241424560547,1.5718754529953003
1772734451811772400,12.4557724609375,8.808981895446777,-4.014578819274902,1.5669671297073364
1772734451821821400,12.465821533203124,8.795024871826172,-4.046232223510742,1.563948392868042
1772734451831834400,12.47583447265625,8.759049415588379,-4.119741439819336,1.5739037990570068
1772734451841896000,12.48589599609375,8.733712196350098,-4.170485973358154,1.5810465812683105
1772734451861938400,12.5059384765625,8.684778213500977,-4.266035556793213,1.5956075191497803
1772734451871959000,12.515958984375,8.661112785339355,-4.311914443969727,1.6009118556976318
1772734451882633200,12.52663330078125,8.638870239257812,-4.354506015777588,1.6057980060577393
1772734451892023300,12.536023193359375,8.624756813049316,-4.380965232849121,1.609688401222229
1772734451904888800,12.548888916015626,8.6185941696167,-4.392563343048096,1.6110879182815552
1772734451912373200,12.556373291015625,8.618328094482422,-4.391237735748291,1.6161166429519653
1772734451922192000,12.56619189453125,8.624858856201172,-4.37847900390625,1.6158965826034546
1772734451932185600,12.576185546875,8.634777069091797,-4.360589504241943,1.6112968921661377
1772734451942255600,12.586255615234375,8.646360397338867,-4.339670658111572,1.605642318725586
1772734451972363300,12.61636328125,8.670003890991211,-4.294079303741455,1.6007180213928223
1772734451982427000,12.626427001953125,8.675017356872559,-4.285130977630615,1.5975303649902344
1772734451992426200,12.63642626953125,8.680191040039062,-4.2770795822143555,1.59099280834198
1772734452002815700,12.646815673828126,8.686025619506836,-4.26705265045166,1.586065411567688
1772734452012481800,12.656481689453125,8.687772750854492,-4.2676777839660645,1.5747746229171753
1772734452022549000,12.666549072265624,8.688678741455078,-4.268350124359131,1.5679441690444946
1772734452032573200,12.6765732421875,8.685066223144531,-4.2773847579956055,1.563327670097351
1772734452043266300,12.687266357421874,8.675816535949707,-4.297764778137207,1.558785080909729
1772734452052640800,12.696640869140625,8.668365478515625,-4.3141093254089355,1.5550892353057861
1772734452064340200,12.70834033203125,8.645391464233398,-4.362285137176514,1.548569917678833
1772734452072744200,12.716744140625,8.623072624206543,-4.407962799072266,1.5436536073684692
1772734452082818800,12.72681884765625,8.589406967163086,-4.474173545837402,1.5408618450164795
1772734452092813800,12.736813720703125,8.549039840698242,-4.5502142906188965,1.542678952217102
1772734452103174400,12.74717431640625,8.501262664794922,-4.6395769119262695,1.5405349731445312
1772734452112890600,12.756890625,8.449782371520996,-4.732769966125488,1.5402801036834717
1772734452122953700,12.76695361328125,8.393438339233398,-4.832715034484863,1.5379992723464966
1772734452132951600,12.77695166015625,8.365320205688477,-4.879483222961426,1.5435179471969604
1772734452142999600,12.78699951171875,8.272241592407227,-5.036933898925781,1.539381980895996
1772734452153024300,12.797024169921874,8.208187103271484,-5.139100074768066,1.5445711612701416
1772734452183169300,12.827169189453125,8.027825355529785,-5.414484977722168,1.5516977310180664
1772734452193198000,12.837197998046875,7.972889423370361,-5.497262477874756,1.5438674688339233
1772734452204163600,12.84816357421875,7.914701461791992,-5.585063457489014,1.5280587673187256
1772734452213227300,12.857227294921875,7.862654209136963,-5.661884784698486,1.513975739479065
1772734452225735700,12.869735595703125,7.7850728034973145,-5.77353572845459,1.4930932521820068
1772734452233272600,12.8772724609375,7.73067569732666,-5.848522663116455,1.4838570356369019
1772734452243315700,12.887315673828125,7.65932035446167,-5.945401191711426,1.468808650970459
1772734452253284400,12.897284423828125,7.589104652404785,-6.0391340255737305,1.4507724046707153
1772734452263313200,12.907313232421876,7.524783134460449,-6.123754024505615,1.4309691190719604
1772734452283360800,12.92736083984375,7.437097549438477,-6.236539363861084,1.4019781351089478
1772734452293325800,12.937325927734374,7.347928524017334,-6.347187519073486,1.375339150428772
1772734452303660800,12.947660888671875,7.3224053382873535,-6.377793312072754,1.3698642253875732
1772734452313367600,12.957367431640625,7.225050926208496,-6.492046356201172,1.3499468564987183
1772734452323406600,12.967406494140626,7.1616997718811035,-6.5645833015441895,1.3366752862930298
1772734452333380000,12.977380126953125,7.100600242614746,-6.633863925933838,1.3204987049102783
1772734452343402000,12.987402099609374,7.041230201721191,-6.700046062469482,1.3041625022888184
1772734452353426200,12.99742626953125,6.988516330718994,-6.758316516876221,1.2869340181350708
1772734452364079900,13.008079833984375,6.943349361419678,-6.807298183441162,1.273179531097412
1772734452373448400,13.017448486328124,6.9299092292785645,-6.821874618530273,1.2683748006820679
1772734452393508400,13.03750830078125,6.871756553649902,-6.8849663734436035,1.243615984916687
1772734452403849200,13.04784912109375,6.868006706237793,-6.890554428100586,1.2333438396453857
1772734452413527600,13.057527587890625,6.868951797485352,-6.89119815826416,1.224457025527954
1772734452423548700,13.067548583984374,6.873017311096191,-6.889003276824951,1.2139478921890259
1772734452433542000,13.0775419921875,6.878902912139893,-6.884759426116943,1.2046440839767456
1772734452443579100,13.0875791015625,6.885864734649658,-6.879292964935303,1.1960670948028564
1772734452453555200,13.09755517578125,6.897110462188721,-6.868574619293213,1.1928712129592896
1772734452463586800,13.1075869140625,6.904792308807373,-6.86171293258667,1.1879068613052368
1772734452473577000,13.117576904296875,6.912589073181152,-6.8541693687438965,1.1861118078231812
1772734452504345300,13.148345458984375,6.939033508300781,-6.828896522521973,1.1774489879608154
1772734452513609000,13.15760888671875,6.9452104568481445,-6.822767734527588,1.1765573024749756
1772734452524243200,13.1682431640625,6.952968120574951,-6.815032958984375,1.1755577325820923
1772734452533593600,13.177593505859376,6.960752964019775,-6.807312965393066,1.1742221117019653
1772734452546109200,13.190109130859375,6.967505931854248,-6.801130771636963,1.1699851751327515
1772734452553634600,13.197634521484375,6.975748538970947,-6.792619228363037,1.1703206300735474
1772734452563659800,13.20765966796875,6.965649127960205,-6.804266452789307,1.162790298461914
1772734452573617700,13.21761767578125,6.967578411102295,-6.802853107452393,1.1594979763031006
1772734452583626800,13.227626708984374,6.950235843658447,-6.821391582489014,1.1546586751937866
1772734452603981800,13.24798193359375,6.874167442321777,-6.898947715759277,1.1492267847061157
1772734452613645300,13.257645263671876,6.842895030975342,-6.930375576019287,1.1467643976211548
1772734452623653400,13.2676533203125,6.812973499298096,-6.959877014160156,1.1462591886520386
1772734452633641200,13.27764111328125,6.7877326011657715,-6.984595775604248,1.1456459760665894
1772734452643708200,13.287708251953125,6.769560813903809,-7.002884387969971,1.1415081024169922
1772734452653710000,13.2977099609375,6.760302543640137,-7.012564659118652,1.136940360069275
1772734452663766000,13.30776611328125,6.7572479248046875,-7.016209125518799,1.132607340812683
1772734452673798000,13.3177978515625,6.756839752197266,-7.017116546630859,1.1294184923171997
1772734452684480500,13.32848046875,6.762628555297852,-7.013327598571777,1.1182538270950317
1772734452705900800,13.34990087890625,6.7604498863220215,-7.0180511474609375,1.1016647815704346
1772734452715024600,13.359024658203126,6.758515357971191,-7.020635604858398,1.0970613956451416
1772734452725098200,13.36909814453125,6.752405166625977,-7.027951240539551,1.087799310684204
1772734452735100700,13.3791005859375,6.742393493652344,-7.039205551147461,1.0770803689956665
1772734452745277700,13.389277587890625,6.727713584899902,-7.054422855377197,1.06928288936615
1772734452755191800,13.39919189453125,6.701054096221924,-7.080663681030273,1.0632295608520508
1772734452765240000,13.409239990234376,6.684511661529541,-7.096900939941406,1.059098482131958
1772734452775258000,13.419258056640626,6.668510913848877,-7.112695217132568,1.05400550365448
1772734452785319400,13.4293193359375,6.660104274749756,-7.120720386505127,1.0529648065567017
1772734452815427300,13.45942724609375,6.624738693237305,-7.155345439910889,1.0412769317626953
1772734452825502700,13.469502685546875,6.609384536743164,-7.17051362991333,1.0344895124435425
1772734452835505700,13.479505615234375,6.600621700286865,-7.179171562194824,1.0303750038146973
1772734452846172000,13.490171875,6.591947078704834,-7.187601566314697,1.0271321535110474
1772734452855577900,13.499577880859375,6.587324619293213,-7.192141532897949,1.0250097513198853
1772734452868142800,13.512142822265625,6.584497928619385,-7.194978713989258,1.023260235786438
1772734452875673600,13.519673583984375,6.583065509796143,-7.196037292480469,1.0250269174575806
1772734452885714000,13.5297138671875,6.585731029510498,-7.194142818450928,1.0211960077285767
1772734452895732200,13.539732177734376,6.593531131744385,-7.188180446624756,1.012813925743103
1772734452925853700,13.569853759765625,6.612438678741455,-7.172711372375488,0.9991297125816345
1772734452935878700,13.579878662109374,6.615759372711182,-7.169651508331299,0.9991077780723572
1772734452945954000,13.5899541015625,6.618919849395752,-7.166667461395264,0.9995806813240051
1772734452955954700,13.59995458984375,6.620074272155762,-7.165505409240723,1.000270128250122
1772734452966009000,13.610009033203125,6.621155261993408,-7.164550304412842,0.9999567866325378
1772734452976029200,13.620029296875,6.623438358306885,-7.162448406219482,0.99989253282547
1772734452986493200,13.6304931640625,6.6285786628723145,-7.157766342163086,0.9993541836738586
1772734452996122000,13.6401220703125,6.63416051864624,-7.152684688568115,0.998710036277771
1772734453007096300,13.651096435546876,6.638245105743408,-7.148822784423828,0.9992141723632812
1772734453027860500,13.671860595703125,6.648332595825195,-7.138857364654541,1.0033844709396362
1772734453036304600,13.6803046875,6.651925086975098,-7.13478422164917,1.0085322856903076
1772734453046356000,13.69035595703125,6.653567790985107,-7.132843494415283,1.0114152431488037
1772734453056376000,13.7003759765625,6.654994964599609,-7.131293296813965,1.0129586458206177
1772734453066444300,13.7104443359375,6.656528472900391,-7.129950046539307,1.0123422145843506
1772734453076459500,13.72045947265625,6.656989574432373,-7.129492282867432,1.012528419494629
1772734453086506200,13.73050634765625,6.658057689666748,-7.128561496734619,1.0120660066604614
1772734453096524300,13.740524169921875,6.6580023765563965,-7.1284403800964355,1.0132731199264526
1772734453126655700,13.77065576171875,6.647181510925293,-7.137755870819092,1.018731951713562
1772734453136672500,13.780672607421875,6.6423749923706055,-7.1414337158203125,1.0242869853973389
1772734453146739200,13.7907392578125,6.63604211807251,-7.1463212966918945,1.0312296152114868
1772734453156769800,13.800769775390625,6.634707450866699,-7.146905899047852,1.0357486009597778
1772734453167427600,13.811427490234376,6.625692367553711,-7.1533403396606445,1.0489596128463745
1772734453176832300,13.820832275390625,6.6253581047058105,-7.1525163650512695,1.0566586256027222
1772734453189388800,13.833388916015625,6.628424167633057,-7.148046493530273,1.0676199197769165
1772734453196938800,13.840938720703125,6.633796215057373,-7.141861438751221,1.075616717338562
1772734453227096300,13.871096435546875,6.6617751121521,-7.108025550842285,1.1256637573242188
1772734453237117700,13.88111767578125,6.668785572052002,-7.097187519073486,1.152217984199524
1772734453247177700,13.891177734375,6.676768779754639,-7.084878921508789,1.1813771724700928
1772734453257206300,13.901206298828125,6.684993267059326,-7.071878910064697,1.212349534034729
1772734453267242200,13.9112421875,6.691656589508057,-7.0599870681762695,1.2444734573364258
1772734453277225700,13.921225830078125,6.695442199707031,-7.0537285804748535,1.2595105171203613
1772734453287238100,13.931238037109376,6.703982353210449,-7.035651683807373,1.3140090703964233
1772734453297209300,13.941209228515625,6.712059020996094,-7.020922660827637,1.351030945777893
1772734453307591200,13.951591064453124,6.7241129875183105,-7.001572608947754,1.3909276723861694
1772734453337349400,13.981349365234376,6.787145137786865,-6.914881229400635,1.513096570968628
1772734453349074400,13.993074462890625,6.830076217651367,-6.86061429977417,1.5660171508789062
1772734453357444900,14.00144482421875,6.869775772094727,-6.810861587524414,1.6089520454406738
1772734453367502000,14.011502197265624,6.89031982421875,-6.784261703491211,1.633299469947815
1772734453377520400,14.021520263671874,6.950179100036621,-6.709370136260986,1.6881214380264282
1772734453387592400,14.031592529296875,7.058361530303955,-6.573278427124023,1.7725507020950317
1772734453397613300,14.04161328125,7.131002902984619,-6.47819185256958,1.8309063911437988
1772734453407976700,14.051976806640624,7.203191757202148,-6.38289213180542,1.8823153972625732
1772734453417685000,14.06168505859375,7.267620086669922,-6.2963786125183105,1.9255365133285522
1772734453447822300,14.091822265625,7.445082187652588,-6.044351577758789,2.051086187362671
1772734453457840000,14.101840087890626,7.494045257568359,-5.96959924697876,2.09130597114563
1772734453467916500,14.11191650390625,7.5410356521606445,-5.895833969116211,2.131270408630371
1772734453477924000,14.121924072265625,7.560805797576904,-5.8633527755737305,2.150747537612915
1772734453488588300,14.13258837890625,7.611647605895996,-5.783865928649902,2.1863467693328857
1772734453497990100,14.141990234375,7.666484832763672,-5.698664665222168,2.218247890472412
1772734453510882800,14.1548828125,7.7804951667785645,-5.523140907287598,2.2647719383239746
1772734453518453000,14.162452880859375,7.781509876251221,-5.5205841064453125,2.267518997192383
1772734453528150300,14.172150390625,7.8662519454956055,-5.391261577606201,2.2862114906311035
1772734453548247300,14.192247314453125,7.933034896850586,-5.290065288543701,2.2918453216552734
1772734453558258000,14.2022578125,7.976091384887695,-5.227215766906738,2.286606788635254
1772734453568326700,14.21232666015625,8.035675048828125,-5.143022537231445,2.2688422203063965
1772734453578333000,14.2223330078125,8.067145347595215,-5.099664211273193,2.254990339279175
1772734453588407800,14.23240771484375,8.095947265625,-5.062130451202393,2.2362639904022217
1772734453598386000,14.242385986328125,8.107606887817383,-5.046918869018555,2.228388547897339
1772734453608758300,14.25275830078125,8.152012825012207,-4.996880054473877,2.178593158721924
1772734453618445600,14.262445556640625,8.17885684967041,-4.968978404998779,2.1414835453033447
1772734453628525600,14.272525634765625,8.207354545593262,-4.940016746520996,2.099034309387207
1772734453649188900,14.29318896484375,8.24779224395752,-4.90029239654541,2.0325968265533447
1772734453658578200,14.302578125,8.299375534057617,-4.844484806060791,1.9549221992492676
1772734453670272500,14.3142724609375,8.337993621826172,-4.804581642150879,1.8879203796386719
1772734453678693600,14.322693603515624,8.364206314086914,-4.782473087310791,1.8271275758743286
1772734453688749000,14.3327490234375,8.39681625366211,-4.752327919006348,1.7547792196273804
1772734453698756600,14.342756591796874,8.428683280944824,-4.720724105834961,1.6859523057937622
1772734453709122800,14.353122802734376,8.458949089050293,-4.689701557159424,1.6196513175964355
1772734453718845000,14.362844970703126,8.484980583190918,-4.661767482757568,1.5631442070007324
1772734453728888600,14.372888671875,8.506577491760254,-4.641651630401611,1.5045244693756104
1772734453738899500,14.3828994140625,8.523838996887207,-4.629027843475342,1.4445263147354126
1772734453758960600,14.402960693359375,8.546464920043945,-4.614446640014648,1.3546990156173706
1772734453769007000,14.413007080078126,8.569527626037598,-4.600381851196289,1.2530251741409302
1772734453779020300,14.423020263671875,8.576937675476074,-4.595427989959717,1.2200698852539062
1772734453789083400,14.43308349609375,8.59203052520752,-4.593667030334473,1.1160740852355957
1772734453799083500,14.44308349609375,8.599907875061035,-4.593946933746338,1.05243718624115
1772734453810045400,14.45404541015625,8.607512474060059,-4.594223499298096,0.9870255589485168
1772734453819142000,14.463141845703126,8.613773345947266,-4.593405723571777,0.9348432421684265
1772734453831681500,14.475681640625,8.627769470214844,-4.580284595489502,0.867739737033844
1772734453859255600,14.503255615234375,8.671347618103027,-4.518991470336914,0.7462201118469238
1772734453869316000,14.513316162109374,8.711625099182129,-4.454056262969971,0.6628447771072388
1772734453879346400,14.523346435546875,8.724746704101562,-4.431820869445801,0.6388634443283081
1772734453889400300,14.533400390625,8.752697944641113,-4.386312961578369,0.5665057897567749
1772734453899437300,14.543437255859375,8.765962600708008,-4.365090847015381,0.5237048864364624
1772734453909821400,14.553821533203125,8.777442932128906,-4.346977233886719,0.4802895188331604
1772734453919575800,14.563575927734375,8.788667678833008,-4.328720569610596,0.4380566477775574
1772734453929524700,14.573524658203125,8.80160903930664,-4.306486129760742,0.3952820599079132
1772734453939661600,14.58366162109375,8.81814193725586,-4.276397228240967,0.3509891927242279
1772734453970133500,14.614133544921875,8.855508804321289,-4.204982280731201,0.26166999340057373
1772734453979518500,14.6235185546875,8.866722106933594,-4.183998107910156,0.21395210921764374
1772734453991209200,14.635209228515626,8.871952056884766,-4.1743083000183105,0.184403657913208
1772734453999588900,14.6435888671875,8.87569808959961,-4.167216777801514,0.16329321265220642
1772734454009944300,14.6539443359375,8.883399963378906,-4.151917934417725,0.13104644417762756
1772734454019645200,14.663645263671874,8.89145565032959,-4.1355881690979,0.09648732095956802
1772734454029717800,14.6737177734375,8.900741577148438,-4.116283416748047,0.05841989442706108
1772734454039722500,14.683722412109375,8.90518856048584,-4.107017993927002,0.01999780908226967
1772734454069866000,14.713865966796876,8.913020133972168,-4.089583873748779,-0.06133841350674629
1772734454079875300,14.723875244140626,8.929286003112793,-4.053128242492676,-0.10195625573396683
1772734454089924000,14.733924072265625,8.92674732208252,-4.058245658874512,-0.11925386637449265
1772734454099956200,14.743956298828126,8.951120376586914,-4.002847671508789,-0.1582850217819214
1772734454110337300,14.754337158203125,8.969344139099121,-3.9608566761016846,-0.1812950223684311
1772734454120029700,14.76402978515625,8.982049942016602,-3.9309346675872803,-0.20230156183242798
1772734454130684200,14.77468408203125,8.993553161621094,-3.9034535884857178,-0.2223481833934784
1772734454140091600,14.784091552734376,9.000798225402832,-3.885754346847534,-0.23859891295433044
1772734454152655000,14.796655029296875,9.010893821716309,-3.860902786254883,-0.26002514362335205
1772734454180261600,14.82426171875,9.045441627502441,-3.775299310684204,-0.31223976612091064
1772734454190330600,14.83433056640625,9.052347183227539,-3.7578811645507812,-0.32207798957824707
1772734454200340700,14.8443408203125,9.07162094116211,-3.709223985671997,-0.3431304395198822
1772734454210695700,14.85469580078125,9.07876205444336,-3.6905157566070557,-0.35575932264328003
1772734454220416500,14.86441650390625,9.080892562866211,-3.6847004890441895,-0.3616119921207428
1772734454230488000,14.874488037109375,9.07780933380127,-3.6904354095458984,-0.3800707459449768
1772734454240750800,14.884750732421875,9.074543952941895,-3.697786569595337,-0.38654813170433044
1772734454250541300,14.894541259765624,9.061147689819336,-3.7285711765289307,-0.4046523869037628
1772734454260558600,14.90455859375,9.054533004760742,-3.7433714866638184,-0.41592738032341003
1772734454291293000,14.93529296875,9.068071365356445,-3.7065072059631348,-0.44976168870925903
1772734454300696000,14.944696044921875,9.074640274047852,-3.6891472339630127,-0.45987480878829956
1772734454312658200,14.956658203125,9.077301025390625,-3.6820430755615234,-0.4642813503742218
1772734454320777700,14.96477783203125,9.078027725219727,-3.680233955383301,-0.4644114077091217
1772734454330815000,14.97481494140625,9.079354286193848,-3.6771175861358643,-0.46315309405326843
1772734454340851000,14.984850830078125,9.082146644592285,-3.6706368923187256,-0.45981094241142273
1772734454350910500,14.994910400390625,9.085559844970703,-3.6627111434936523,-0.4555779695510864
1772734454360935200,15.00493505859375,9.088394165039062,-3.656907320022583,-0.44554829597473145
1772734454380990200,15.024990234375,9.089670181274414,-3.6562304496765137,-0.42457377910614014
1772734454391051300,15.03505126953125,9.086603164672852,-3.6655397415161133,-0.4097077548503876
1772734454401042400,15.04504248046875,9.078680038452148,-3.6873302459716797,-0.3893047273159027
1772734454411392300,15.055392333984376,9.057938575744629,-3.7407069206237793,-0.3622814118862152
1772734454421091000,15.065091064453124,9.02805233001709,-3.8144729137420654,-0.33831164240837097
1772734454431148300,15.075148193359375,9.013504981994629,-3.849644184112549,-0.3276258409023285
1772734454441143800,15.085143798828126,8.972967147827148,-3.9445011615753174,-0.31170374155044556
1772734454451793700,15.095793701171875,8.9020357131958,-4.102844715118408,-0.30135610699653625
1772734454461190000,15.10518994140625,8.867448806762695,-4.177376747131348,-0.2970809042453766
1772734454473726700,15.117726806640626,8.843174934387207,-4.229152202606201,-0.2879417836666107
1772734454491340300,15.13534033203125,8.838764190673828,-4.239619255065918,-0.2688297927379608
1772734454501363500,15.145363525390625,8.841788291931152,-4.233648300170898,-0.2634204924106598
1772734454511741700,15.15574169921875,8.849435806274414,-4.218378067016602,-0.25133243203163147
1772734454521438000,15.16543798828125,8.836668014526367,-4.246284008026123,-0.2296680063009262
1772734454531494000,15.175493896484374,8.817927360534668,-4.28599739074707,-0.2116222083568573
1772734454541516300,15.185516357421875,8.788308143615723,-4.347304821014404,-0.19225743412971497
1772734454551581200,15.195581298828126,8.765092849731445,-4.394561767578125,-0.17710019648075104
1772734454561585000,15.2055849609375,8.752734184265137,-4.419490337371826,-0.16775120794773102
1772734454571636000,15.215635986328126,8.747387886047363,-4.430169105529785,-0.16490165889263153
1772734454601739300,15.2457392578125,8.737150192260742,-4.45018196105957,-0.16876506805419922
1772734454612722000,15.256721923828126,8.738402366638184,-4.447937488555908,-0.16301102936267853
1772734454621831000,15.265830810546875,8.738465309143066,-4.448455333709717,-0.14443477988243103
1772734454633547500,15.277547607421875,8.737225532531738,-4.451260089874268,-0.13251915574073792
1772734454641943600,15.285943603515625,8.737848281860352,-4.450166702270508,-0.12808439135551453
1772734454651993300,15.295993408203126,8.725190162658691,-4.475231170654297,-0.11729440093040466
1772734454661997000,15.3059970703125,8.702820777893066,-4.519133567810059,-0.09341113269329071
1772734454672038700,15.31603857421875,8.683470726013184,-4.556722164154053,-0.06333134323358536
1772734454692050700,15.33605078125,8.650667190551758,-4.619124889373779,0.006035919301211834
1772734454702047700,15.3460478515625,8.630683898925781,-4.6562724113464355,0.028464024886488914
1772734454712395800,15.356395751953125,8.613471031188965,-4.687813758850098,0.05387596786022186
1772734454722082600,15.36608251953125,8.604227066040039,-4.704324722290039,0.0836646631360054
1772734454732119300,15.376119384765625,8.603100776672363,-4.705646991729736,0.11803732812404633
1772734454742111700,15.38611181640625,8.603900909423828,-4.703396797180176,0.14610198140144348
1772734454752139300,15.39613916015625,8.599088668823242,-4.7116594314575195,0.16226020455360413
1772734454762130400,15.40613037109375,8.596209526062012,-4.7156548500061035,0.19536139070987701
1772734454772770800,15.416770751953125,8.587682723999023,-4.729402542114258,0.23418855667114258
1772734454794732800,15.43873291015625,8.566431999206543,-4.766096115112305,0.26637086272239685
1772734454802302000,15.446302001953125,8.566518783569336,-4.764906883239746,0.2842506468296051
1772734454812509400,15.456509521484374,8.577287673950195,-4.745774269104004,0.2795872092247009
1772734454822198000,15.466197998046875,8.59250545501709,-4.718234062194824,0.27837854623794556
1772734454832240000,15.476240234375,8.599884986877441,-4.704702854156494,0.27951326966285706
1772734454842199300,15.48619921875,8.623204231262207,-4.660706043243408,0.29758375883102417
