time,seconds_elapsed,z,y,x
1772734439878078200,0.522078125,-0.21868975460529327,-0.3591887652873993,-0.11484266817569733
1772734439888088600,0.532088623046875,-0.1319468915462494,0.25534167885780334,0.475253164768219
1772734439898150700,0.542150634765625,-0.08674286305904388,0.27000242471694946,0.43127086758613586
1772734439908161000,0.5521611328125,-0.024434609338641167,0.1417207419872284,0.22968533635139465
1772734439918216200,0.56221630859375,0.019547687843441963,-0.04886921867728233,0.0012217304902151227
1772734439928216300,0.57221630859375,0.01710422709584236,-0.04886921867728233,0.00366519158706069
1772734439938290200,0.582290283203125,0.018325956538319588,-0.039095375686883926,0.012217304669320583
1772734439948277500,0.592277587890625,0.01710422709584236,-0.03176499158143997,0.018325956538319588
1772734439958679800,0.6026796875,0.013439035043120384,-0.03298672288656235,0.02321287989616394
1772734439968334000,0.612333984375,0.010995574295520782,-0.03420845419168472,0.024434609338641167
1772734439978386200,0.62238623046875,0.00855211354792118,-0.039095375686883926,0.02321287989616394
1772734439988394800,0.632394775390625,0.012217304669320583,-0.04153883829712868,0.025656340643763542
1772734439999074000,0.643073974609375,0.018325956538319588,-0.0354301854968071,0.02321287989616394
1772734440008454400,0.652454345703125,0.015882495790719986,-0.03787364438176155,0.025656340643763542
1772734440020989000,0.664989013671875,0.006108652334660292,-0.05375614017248154,0.04886921867728233
1772734440028532500,0.672532470703125,0.00366519158706069,-0.06108652427792549,0.0659734457731247
1772734440038596900,0.682596923828125,0.013439035043120384,-0.06475171446800232,0.07696902006864548
1772734440048596000,0.692595947265625,0.025656340643763542,-0.04642575979232788,0.08674286305904388
1772734440058991600,0.70299169921875,0.03298672288656235,-0.02321287989616394,0.06108652427792549
1772734440068688600,0.712688720703125,0.03420845419168472,-0.00366519158706069,0.019547687843441963
1772734440088758800,0.7327587890625,0.02687807008624077,-0.03298672288656235,0.0024434609804302454
1772734440098822000,0.74282177734375,0.019547687843441963,-0.05497787147760391,0.05253441259264946
1772734440108829400,0.752829345703125,0.013439035043120384,-0.06719517707824707,0.12095131725072861
1772734440118916000,0.762916015625,0.021991148591041565,-0.07452555745840073,0.1918116807937622
1772734440128903700,0.772903564453125,0.0354301854968071,-0.0708603709936142,0.2590068578720093
1772734440138962700,0.782962646484375,0.036651913076639175,-0.04764748737215996,0.23090706765651703
1772734440148964000,0.792964111328125,0.04642575979232788,-0.05253441259264946,0.10873401165008545
1772734440159968500,0.803968505859375,0.06230825558304787,-0.08307767659425735,-0.028099801391363144
1772734440169045200,0.813045166015625,0.06719517707824707,-0.1111774742603302,-0.14294247329235077
1772734440180709400,0.82470947265625,0.06841690838336945,-0.1417207419872284,-0.2272418737411499
1772734440199266300,0.843266357421875,0.11239920556545258,-0.2321287989616394,-0.14782938361167908
1772734440209292500,0.85329248046875,0.13316862285137177,-0.24923302233219147,-0.028099801391363144
1772734440219346400,0.863346435546875,0.14416420459747314,-0.25534167885780334,0.0806342139840126
1772734440229370400,0.873370361328125,0.1466076523065567,-0.27122417092323303,0.16493362188339233
1772734440239439000,0.883439208984375,0.15271630883216858,-0.30054569244384766,0.19425514340400696
1772734440249443800,0.89344384765625,0.17959438264369965,-0.3433062732219696,0.15882496535778046
1772734440259806200,0.90380615234375,0.2528982162475586,-0.4043927788734436,0.025656340643763542
1772734440269525000,0.91352490234375,0.30543261766433716,-0.44104471802711487,-0.09040805697441101
1772734440279592400,0.923592529296875,0.3628539443016052,-0.4764748811721802,-0.23579397797584534
1772734440309703200,0.953703125,0.41661009192466736,-0.5998696684837341,-0.4691445231437683
1772734440320388400,0.964388427734375,0.41661009192466736,-0.6438519954681396,-0.4447098970413208
1772734440329783800,0.97378369140625,0.43737950921058655,-0.6524040699005127,-0.41661009192466736
1772734440342323700,0.98632373046875,0.49724429845809937,-0.6230825781822205,-0.37751471996307373
1772734440349913000,0.9939130859375,0.5204572081565857,-0.6120869517326355,-0.3677408695220947
1772734440360279600,1.004279541015625,0.5668829679489136,-0.598647952079773,-0.37140607833862305
1772734440369968600,1.01396875,0.608421802520752,-0.5962044596672058,-0.42271876335144043
1772734440380019700,1.024019775390625,0.6585127115249634,-0.6206390857696533,-0.5192354321479797
1772734440410120000,1.054119873046875,0.9358455538749695,-0.8539896011352539,-0.8124507665634155
1772734440420171500,1.064171630859375,0.9847147464752197,-0.93095862865448,-0.7782423496246338
1772734440430190600,1.074190673828125,1.0250319242477417,-1.0030407905578613,-0.779464066028595
1772734440440267500,1.084267578125,1.0702359676361084,-1.0433578491210938,-0.8491026759147644
1772734440450296300,1.09429638671875,1.1239920854568481,-1.06657075881958,-0.9553932547569275
1772734440460632300,1.10463232421875,1.19607412815094,-1.0690141916275024,-1.0604621171951294
1772734440470340900,1.1143408203125,1.2803735733032227,-1.0726794004440308,-1.1508700847625732
1772734440481010000,1.125010009765625,1.3683381080627441,-1.0787880420684814,-1.2376129627227783
1772734440502098200,1.14609814453125,1.5259413719177246,-1.1850786209106445,-1.281595230102539
1772734440510497300,1.154497314453125,1.6090190410614014,-1.2424999475479126,-1.156978726387024
1772734440520545800,1.1645458984375,1.6774359941482544,-1.2718214988708496,-0.9834930300712585
1772734440530529000,1.174529052734375,1.6994271278381348,-1.264491081237793,-0.8356636762619019
1772734440540563500,1.1845634765625,1.6872098445892334,-1.2217304706573486,-0.7574729323387146
1772734440550567400,1.1945673828125,1.6627751588821411,-1.166752576828003,-0.7550294399261475
1772734440560935200,1.20493505859375,1.6383405923843384,-1.1142182350158691,-0.8283332586288452
1772734440570590700,1.2145908203125,1.6212363243103027,-1.0641272068023682,-0.9590584635734558
1772734440580618800,1.22461865234375,1.6420058012008667,-0.979827880859375,-1.0897835493087769
1772734440590628000,1.234628173828125,1.5650367736816406,-1.1081095933914185,-1.1459832191467285
1772734440620686000,1.26468603515625,1.5796974897384644,-1.0897835493087769,-1.2046263217926025
1772734440630688300,1.274688232421875,1.5418238639831543,-1.1178834438323975,-1.156978726387024
1772734440641352400,1.2853525390625,1.3952162265777588,-1.1423180103302002,-1.0018190145492554
1772734440650724000,1.29472412109375,1.301142930984497,-1.0995573997497559,-0.9089674949645996
1772734440663575000,1.307574951171875,1.2095131874084473,-1.0409144163131714,-0.807563841342926
1772734440672810500,1.316810546875,1.1618657112121582,-0.9896016716957092,-0.7012733221054077
1772734440682856200,1.326856201171875,1.1557570695877075,-0.9639453291893005,-0.6682865619659424
1772734440692833000,1.3368330078125,1.1398745775222778,-0.9627236127853394,-0.6866125464439392
1772734440722942000,1.36694189453125,0.9162978529930115,-0.856433093547821,-0.49724429845809937
1772734440732946700,1.37694677734375,0.8539896011352539,-0.7941248416900635,-0.44104471802711487
1772734440742956500,1.38695654296875,0.779464066028595,-0.7330383062362671,-0.4141666293144226
1772734440752963000,1.396963134765625,0.6878342628479004,-0.7195992469787598,-0.3836233615875244
1772734440763330800,1.407330810546875,0.6108652353286743,-0.7195992469787598,-0.31520646810531616
1772734440772997400,1.416997314453125,0.5607742667198181,-0.685390830039978,-0.22968533635139465
1772734440783049500,1.427049560546875,0.5082398653030396,-0.6145304441452026,-0.16493362188339233
1772734440793046000,1.4370458984375,0.44593164324760437,-0.5375614166259766,-0.06352998316287994
1772734440803697400,1.447697509765625,0.39095374941825867,-0.4703662395477295,0.12095131725072861
1772734440824693800,1.46869384765625,0.24068090319633484,-0.3066543638706207,0.5070181488990784
1772734440833128000,1.4771279296875,0.19303341209888458,-0.2370157092809677,0.5326744914054871
1772734440843175000,1.4871748046875,0.09285151958465576,-0.1270599663257599,0.5534439086914062
1772734440853156400,1.49715625,-0.00733038317412138,0.0012217304902151227,0.5424483418464661
1772734440863498800,1.507498779296875,-0.03420845419168472,0.05864306539297104,0.4960225820541382
1772734440873194000,1.517194091796875,-0.05497787147760391,0.08307767659425735,0.45692721009254456
1772734440883244000,1.527244140625,-0.0757472887635231,0.06841690838336945,0.4398229718208313
1772734440893219000,1.537218994140625,-0.07330382615327835,0.0708603709936142,0.44593164324760437
1772734440923280100,1.567280029296875,0.0403171069920063,0.08918632566928864,0.4105014503002167
1772734440933260500,1.577260498046875,0.07696902006864548,0.08307767659425735,0.3384193480014801
1772734440943286300,1.587286376953125,0.10995574295520782,0.09407325088977814,0.2541199326515198
1772734440953299500,1.597299560546875,0.12828169763088226,0.10995574295520782,0.15882496535778046
1772734440964255700,1.608255859375,0.1111774742603302,0.11972958594560623,-0.00855211354792118
1772734440973318700,1.617318603515625,0.10018189996480942,0.12217304855585098,-0.06352998316287994
1772734440985835000,1.6298349609375,0.06475171446800232,0.09896016865968704,-0.18936823308467865
1772734440993367000,1.637366943359375,0.06352998316287994,0.10262536257505417,-0.21991148591041565
1772734441003409400,1.647409423828125,0.0659734457731247,0.1111774742603302,-0.19303341209888458
1772734441033437000,1.67743701171875,0.021991148591041565,0.1722639948129654,0.07696902006864548
1772734441043472400,1.687472412109375,-0.0024434609804302454,0.15882496535778046,0.20402899384498596
1772734441053449200,1.69744921875,-0.009773843921720982,0.13805554807186127,0.304210901260376
1772734441063790800,1.707790771484375,-0.02321287989616394,0.11972958594560623,0.31642818450927734
1772734441073649700,1.717649658203125,-0.04642575979232788,0.10751228034496307,0.24434609711170197
1772734441083531800,1.72753173828125,-0.07452555745840073,0.09773843735456467,0.13316862285137177
1772734441093508000,1.737508056640625,-0.09651670604944229,0.08918632566928864,0.01710422709584236
1772734441103530000,1.747530029296875,-0.11239920556545258,0.07941248267889023,-0.08307767659425735
1772734441133592600,1.777592529296875,-0.08185594528913498,0.09896016865968704,0.05009094998240471
1772734441145252900,1.7892529296875,-0.09285151958465576,0.11484266817569733,0.1466076523065567
1772734441153646300,1.797646240234375,-0.10384709388017654,0.12461651116609573,0.22968533635139465
1772734441163997200,1.8079970703125,-0.11484266817569733,0.13072516024112701,0.27977627515792847
1772734441173673500,1.817673583984375,-0.12217304855585098,0.12095131725072861,0.2993239760398865
1772734441183693800,1.82769384765625,-0.1270599663257599,0.1014036312699318,0.2919935882091522
1772734441193701400,1.837701416015625,-0.12950342893600464,0.08552113175392151,0.27488934993743896
1772734441203737000,1.847737060546875,-0.1270599663257599,0.08185594528913498,0.26022860407829285
1772734441213708500,1.85770849609375,-0.1160643994808197,0.08552113175392151,0.27611109614372253
1772734441243770600,1.8877705078125,-0.07941248267889023,0.09651670604944229,0.3982841372489929
1772734441253742800,1.897742919921875,-0.07208210229873657,0.05375614017248154,0.35063666105270386
1772734441264085000,1.9080849609375,-0.06108652427792549,0.009773843921720982,0.27488934993743896
1772734441273791200,1.917791259765625,-0.0403171069920063,-0.021991148591041565,0.17837265133857727
1772734441284443000,1.92844287109375,-0.01710422709584236,-0.045204028487205505,0.06108652427792549
1772734441293809700,1.9378095703125,0.0024434609804302454,-0.06841690838336945,-0.0659734457731247
1772734441306315300,1.950315185546875,0.024434609338641167,-0.08796459436416626,-0.17348572611808777
1772734441313867800,1.95786767578125,0.04642575979232788,-0.10018189996480942,-0.21991148591041565
1772734441343914500,1.98791455078125,0.06719517707824707,-0.09162978827953339,-0.0708603709936142
1772734441353930500,1.997930419921875,0.04398229718208313,-0.08429940044879913,-0.028099801391363144
1772734441364291000,2.008291015625,0.015882495790719986,-0.08307767659425735,-0.039095375686883926
1772734441373948400,2.017948486328125,0.019547687843441963,-0.07941248267889023,-0.08185594528913498
1772734441383966200,2.02796630859375,0.024434609338641167,-0.0659734457731247,-0.13561208546161652
1772734441393970200,2.03797021484375,0.01710422709584236,-0.05497787147760391,-0.1869247704744339
1772734441404002300,2.048002197265625,-0.004886921960860491,-0.0403171069920063,-0.22479841113090515
1772734441413988000,2.057988037109375,-0.021991148591041565,-0.024434609338641167,-0.22602014243602753
1772734441424009200,2.06800927734375,-0.02321287989616394,-0.0012217304902151227,-0.17348572611808777
1772734441454034000,2.098033935546875,-0.06963863968849182,0.03298672288656235,0.019547687843441963
1772734441465953300,2.109953369140625,-0.09285151958465576,0.0403171069920063,-0.051312681287527084
1772734441474075100,2.1180751953125,-0.09529497474431992,0.03787364438176155,-0.08429940044879913
1772734441484111400,2.128111328125,-0.09407325088977814,0.02687807008624077,-0.13072516024112701
1772734441494091800,2.138091796875,-0.09529497474431992,0.019547687843441963,-0.1319468915462494
1772734441504121600,2.14812158203125,-0.1014036312699318,0.021991148591041565,-0.09773843735456467
1772734441514157300,2.1581572265625,-0.10751228034496307,0.04398229718208313,-0.00366519158706069
1772734441524207600,2.16820751953125,-0.10384709388017654,0.05375614017248154,0.0354301854968071
1772734441534195500,2.178195556640625,-0.09651670604944229,0.04764748737215996,0.04764748737215996
1772734441554243300,2.198243408203125,-0.08918632566928864,0.010995574295520782,0.036651913076639175
1772734441564614400,2.208614501953125,-0.08307767659425735,-0.00366519158706069,0.013439035043120384
1772734441574291200,2.218291259765625,-0.06352998316287994,-0.02076941914856434,-0.013439035043120384
1772734441584324900,2.228324951171875,-0.04398229718208313,-0.0403171069920063,-0.021991148591041565
1772734441594328600,2.23832861328125,-0.0354301854968071,-0.04764748737215996,-0.02076941914856434
1772734441604992800,2.24899267578125,-0.030543262138962746,-0.04153883829712868,-0.006108652334660292
1772734441614369800,2.258369873046875,-0.02321287989616394,-0.03298672288656235,0.013439035043120384
1772734441626897400,2.2708974609375,-0.01710422709584236,-0.03420845419168472,0.05009094998240471
1772734441654492400,2.298492431640625,-0.02321287989616394,-0.013439035043120384,0.09651670604944229
1772734441664834600,2.30883447265625,-0.025656340643763542,0,0.08307767659425735
1772734441684605000,2.32860498046875,-0.01710422709584236,-0.00733038317412138,0.0354301854968071
1772734441694600700,2.3386005859375,-0.010995574295520782,-0.012217304669320583,-0.00855211354792118
1772734441704663600,2.34866357421875,-0.0012217304902151227,-0.015882495790719986,-0.051312681287527084
1772734441714671000,2.358671142578125,0.009773843921720982,-0.02076941914856434,-0.08552113175392151
1772734441724725800,2.368725830078125,0.021991148591041565,-0.028099801391363144,-0.09285151958465576
1772734441734716200,2.378716064453125,0.03176499158143997,-0.03420845419168472,-0.08552113175392151
1772734441754787600,2.39878759765625,0.03787364438176155,-0.013439035043120384,-0.04398229718208313
1772734441765764600,2.4097646484375,0.039095375686883926,-0.010995574295520782,-0.021991148591041565
1772734441774837500,2.41883740234375,0.036651913076639175,-0.013439035043120384,-0.02321287989616394
1772734441786506000,2.430506103515625,0.03176499158143997,-0.015882495790719986,-0.059864792972803116
1772734441794920200,2.438920166015625,0.03298672288656235,-0.02321287989616394,-0.10262536257505417
1772734441804970000,2.448969970703125,0.0403171069920063,-0.03787364438176155,-0.13561208546161652
1772734441814952700,2.45895263671875,0.04764748737215996,-0.04886921867728233,-0.1563815027475357
1772734441824982300,2.468982177734375,0.051312681287527084,-0.05375614017248154,-0.1661553531885147
1772734441835008800,2.4790087890625,0.05253441259264946,-0.05497787147760391,-0.15882496535778046
1772734441845059300,2.489059326171875,0.05375614017248154,-0.05253441259264946,-0.14049901068210602
1772734441875079200,2.5190791015625,0.05864306539297104,-0.03298672288656235,-0.14416420459747314
1772734441885132500,2.529132568359375,0.059864792972803116,-0.024434609338641167,-0.1514945775270462
1772734441895113000,2.539113037109375,0.05619960278272629,-0.019547687843441963,-0.15515977144241333
1772734441905144800,2.549144775390625,0.051312681287527084,-0.013439035043120384,-0.16371189057826996
1772734441915175200,2.559175048828125,0.05009094998240471,-0.00366519158706069,-0.16859880089759827
1772734441925833000,2.5698330078125,0.05253441259264946,0.00366519158706069,-0.16737708449363708
1772734441935202000,2.5792021484375,0.05253441259264946,0.009773843921720982,-0.15882496535778046
1772734441947728600,2.591728759765625,0.04398229718208313,0.013439035043120384,-0.14782938361167908
1772734441975313400,2.6193134765625,0.02932153269648552,-0.013439035043120384,-0.09040805697441101
1772734441985347600,2.62934765625,0.025656340643763542,-0.00366519158706069,-0.05375614017248154
1772734441995358500,2.6393583984375,0.021991148591041565,0.00733038317412138,-0.021991148591041565
1772734442005409300,2.6494091796875,0.015882495790719986,0.012217304669320583,0.0012217304902151227
1772734442015391000,2.659390869140625,0.010995574295520782,0.012217304669320583,0.006108652334660292
1772734442025423600,2.669423583984375,0.00366519158706069,0.012217304669320583,-0.019547687843441963
1772734442035490300,2.679490234375,0.006108652334660292,0.010995574295520782,-0.0354301854968071
1772734442045482000,2.68948193359375,0.00733038317412138,0.00366519158706069,-0.042760565876960754
1772734442055459300,2.699459228515625,0.004886921960860491,0,-0.05253441259264946
1772734442086188300,2.730188232421875,0.010995574295520782,-0.004886921960860491,-0.0403171069920063
1772734442095568100,2.739568115234375,0.009773843921720982,-0.0024434609804302454,-0.039095375686883926
1772734442107213600,2.751213623046875,0.010995574295520782,-0.0012217304902151227,-0.04398229718208313
1772734442115648500,2.7596484375,0.013439035043120384,0.0024434609804302454,-0.04886921867728233
1772734442125709300,2.769709228515625,0.013439035043120384,0.00733038317412138,-0.06108652427792549
1772734442135711700,2.779711669921875,0.012217304669320583,0.013439035043120384,-0.07696902006864548
1772734442145750300,2.789750244140625,0.015882495790719986,0.015882495790719986,-0.09040805697441101
1772734442155775700,2.799775634765625,0.015882495790719986,0.01466076634824276,-0.08307767659425735
1772734442166142500,2.810142578125,0.013439035043120384,0.010995574295520782,-0.08307767659425735
1772734442195910100,2.83991015625,0.009773843921720982,0.0024434609804302454,-0.09407325088977814
1772734442205975300,2.849975341796875,0.01466076634824276,0.0012217304902151227,-0.10384709388017654
1772734442215976000,2.859975830078125,0.021991148591041565,0.00366519158706069,-0.10018189996480942
1772734442226020900,2.870020751953125,0.030543262138962746,0.0012217304902151227,-0.08674286305904388
1772734442236039400,2.880039306640625,0.036651913076639175,-0.0024434609804302454,-0.05375614017248154
1772734442246719000,2.890718994140625,0.025656340643763542,-0.00366519158706069,-0.028099801391363144
1772734442256108000,2.90010791015625,0.01466076634824276,-0.0024434609804302454,-0.02932153269648552
1772734442268982300,2.912982177734375,0.025656340643763542,-0.00855211354792118,-0.03420845419168472
1772734442296278800,2.94027880859375,0.04398229718208313,-0.02076941914856434,-0.039095375686883926
1772734442306330000,2.950330078125,0.042760565876960754,-0.01466076634824276,-0.05864306539297104
1772734442316376000,2.9603759765625,0.042760565876960754,-0.01466076634824276,-0.08674286305904388
1772734442326443800,2.97044384765625,0.04153883829712868,-0.02321287989616394,-0.1258382350206375
1772734442336431600,2.980431640625,0.042760565876960754,-0.03298672288656235,-0.16004669666290283
1772734442346468900,2.99046875,0.045204028487205505,-0.0403171069920063,-0.18081611394882202
1772734442356483600,3.000483642578125,0.04764748737215996,-0.0403171069920063,-0.17104226350784302
1772734442366847000,3.010846923828125,0.04642575979232788,-0.03298672288656235,-0.14294247329235077
1772734442376520700,3.020520751953125,0.04642575979232788,-0.02076941914856434,-0.10751228034496307
1772734442407220000,3.051219970703125,0.02321287989616394,-0.01466076634824276,-0.013439035043120384
1772734442416597000,3.060596923828125,0.015882495790719986,-0.02076941914856434,-0.01466076634824276
1772734442428268300,3.072268310546875,0.01466076634824276,-0.02321287989616394,-0.025656340643763542
1772734442436663000,3.0806630859375,0.01466076634824276,-0.02076941914856434,-0.042760565876960754
1772734442446710300,3.090710205078125,0.012217304669320583,-0.019547687843441963,-0.059864792972803116
1772734442456688600,3.100688720703125,0.009773843921720982,-0.013439035043120384,-0.07696902006864548
1772734442467065900,3.11106591796875,0.00733038317412138,0.0024434609804302454,-0.09285151958465576
1772734442476803300,3.12080322265625,-0.0024434609804302454,0.010995574295520782,-0.11484266817569733
1772734442486908000,3.130907958984375,-0.012217304669320583,0.0024434609804302454,-0.12950342893600464
1772734442517068800,3.16106884765625,-0.009773843921720982,-0.03298672288656235,-0.0403171069920063
1772734442527161900,3.171161865234375,-0.02321287989616394,-0.02687807008624077,0
1772734442537189400,3.181189453125,-0.02687807008624077,-0.028099801391363144,0.015882495790719986
1772734442547272700,3.191272705078125,-0.015882495790719986,-0.03176499158143997,0.028099801391363144
1772734442557323000,3.201322998046875,0.0012217304902151227,-0.03420845419168472,0.03420845419168472
1772734442568339200,3.212339111328125,0.013439035043120384,-0.04153883829712868,0.03298672288656235
1772734442577457400,3.22145751953125,0.015882495790719986,-0.04764748737215996,0.019547687843441963
1772734442590017500,3.234017578125,0.018325956538319588,-0.059864792972803116,-0.010995574295520782
1772734442617714000,3.2617138671875,0.05009094998240471,-0.05864306539297104,-0.07696902006864548
1772734442627798800,3.271798828125,0.07208210229873657,-0.04886921867728233,-0.08429940044879913
1772734442637815000,3.28181494140625,0.06963863968849182,-0.03298672288656235,-0.12095131725072861
1772734442647852500,3.2918525390625,0.059864792972803116,-0.02076941914856434,-0.2028072625398636
1772734442657853400,3.301853515625,0.05253441259264946,-0.02687807008624077,-0.22113321721553802
1772734442668227300,3.312227294921875,0.051312681287527084,-0.03420845419168472,-0.20525072515010834
1772734442677969000,3.321968994140625,0.05619960278272629,-0.0354301854968071,-0.16982053220272064
1772734442688046000,3.332046142578125,0.05619960278272629,-0.02687807008624077,-0.12828169763088226
1772734442698093000,3.342093017578125,0.051312681287527084,-0.00733038317412138,-0.11728613078594208
1772734442738360600,3.382360595703125,0.009773843921720982,-0.045204028487205505,-0.2028072625398636
1772734442750053400,3.394053466796875,0.006108652334660292,-0.0403171069920063,-0.1612684279680252
1772734442758513400,3.402513427734375,0,-0.019547687843441963,-0.12461651116609573
1772734442768900000,3.412900146484375,-0.004886921960860491,-0.004886921960860491,-0.08796459436416626
1772734442778629400,3.42262939453125,-0.006108652334660292,-0.00366519158706069,-0.05864306539297104
1772734442788714200,3.43271435546875,-0.00366519158706069,-0.010995574295520782,-0.03298672288656235
1772734442798733800,3.44273388671875,-0.0024434609804302454,-0.01710422709584236,-0.009773843921720982
1772734442808805400,3.452805419921875,-0.010995574295520782,-0.021991148591041565,-0.00366519158706069
1772734442828940800,3.47294091796875,-0.015882495790719986,-0.03420845419168472,-0.010995574295520782
1772734442838968600,3.482968505859375,-0.013439035043120384,-0.03420845419168472,0.0024434609804302454
1772734442849046000,3.4930458984375,-0.015882495790719986,-0.02687807008624077,0.00733038317412138
1772734442859061500,3.5030615234375,-0.02076941914856434,-0.021991148591041565,0.006108652334660292
1772734442869432300,3.513432373046875,-0.02321287989616394,-0.018325956538319588,0.013439035043120384
1772734442879126500,3.52312646484375,-0.02321287989616394,-0.009773843921720982,0.01466076634824276
1772734442889814800,3.533814697265625,-0.018325956538319588,-0.004886921960860491,0.025656340643763542
1772734442899251000,3.5432509765625,-0.019547687843441963,-0.00733038317412138,0.045204028487205505
1772734442911812900,3.555812744140625,-0.025656340643763542,-0.013439035043120384,0.05253441259264946
1772734442929473000,3.57347314453125,-0.02932153269648552,-0.02687807008624077,0.07208210229873657
1772734442939524600,3.583524658203125,-0.025656340643763542,-0.03420845419168472,0.0806342139840126
1772734442949617700,3.59361767578125,-0.019547687843441963,-0.04398229718208313,0.06841690838336945
1772734442959653000,3.603653076171875,-0.01710422709584236,-0.05864306539297104,0.05253441259264946
1772734442970030600,3.614030517578125,-0.018325956538319588,-0.0708603709936142,0.036651913076639175
1772734442979720700,3.623720703125,-0.01710422709584236,-0.08185594528913498,0.015882495790719986
1772734442989773600,3.633773681640625,-0.009773843921720982,-0.09285151958465576,0.0024434609804302454
1772734442999770600,3.6437705078125,-0.0024434609804302454,-0.10995574295520782,0.006108652334660292
1772734443009800700,3.65380078125,-0.006108652334660292,-0.11362093687057495,0.013439035043120384
1772734443019801000,3.663801025390625,-0.013439035043120384,-0.10995574295520782,0.015882495790719986
1772734443050501000,3.694501220703125,-0.02687807008624077,-0.1368338167667389,-0.0012217304902151227
1772734443059891500,3.703891357421875,-0.024434609338641167,-0.16737708449363708,0.02321287989616394
1772734443071890200,3.71589013671875,-0.030543262138962746,-0.20891591906547546,0.04642575979232788
1772734443079957800,3.723957763671875,-0.042760565876960754,-0.25534167885780334,0.0757472887635231
1772734443089998800,3.733998779296875,-0.05619960278272629,-0.294437050819397,0.12461651116609573
1772734443100003000,3.744003173828125,-0.06719517707824707,-0.32986724376678467,0.1722639948129654
1772734443110053600,3.7540537109375,-0.07208210229873657,-0.37262779474258423,0.1966986060142517
1772734443120066600,3.764066650390625,-0.05619960278272629,-0.42760565876960754,0.2125810980796814
1772734443150166500,3.79416650390625,0.06230825558304787,-0.6157521605491638,0.4105014503002167
1772734443160187400,3.8041875,0.07819075137376785,-0.646295428276062,0.4495968222618103
1772734443170576400,3.814576416015625,0.08307767659425735,-0.6695083379745483,0.4764748811721802
1772734443180305000,3.824304931640625,0.08674286305904388,-0.6792821288108826,0.4801400899887085
1772734443190388500,3.834388427734375,0.07941248267889023,-0.6866125464439392,0.45692721009254456
1772734443200412200,3.844412109375,0.07696902006864548,-0.7037167549133301,0.4495968222618103
1772734443211095800,3.855095703125,0.08185594528913498,-0.7269296646118164,0.47769662737846375
1772734443220525600,3.864525634765625,0.09651670604944229,-0.7428121566772461,0.5510004758834839
1772734443233102600,3.8771025390625,0.09407325088977814,-0.7367035150527954,0.6902777552604675
1772734443260785000,3.904784912109375,0.059864792972803116,-0.6487388610839844,0.9847147464752197
1772734443271188500,3.9151884765625,0.07696902006864548,-0.6133087277412415,1.0800096988677979
1772734443280907800,3.92490771484375,0.09285151958465576,-0.5827654600143433,1.1533136367797852
1772734443290976800,3.934976806640625,0.09773843735456467,-0.5656611919403076,1.224173903465271
1772734443301026600,3.945026611328125,0.08552113175392151,-0.5632177591323853,1.292590856552124
1772734443311122000,3.955121826171875,0.07941248267889023,-0.5644394755363464,1.33168625831604
1772734443321144000,3.96514404296875,0.08429940044879913,-0.5473352670669556,1.3573426008224487
1772734443331220200,3.97522021484375,0.09529497474431992,-0.5167919993400574,1.3927727937698364
1772734443341270800,3.985270751953125,0.10995574295520782,-0.4703662395477295,1.4245377779006958
1772734443372374300,4.016374267578125,0.01710422709584236,-0.24678955972194672,1.4343116283416748
1772734443381511400,4.025511474609375,-0.010995574295520782,-0.17104226350784302,1.4110987186431885
1772734443393194200,4.0371943359375,-0.05742133408784866,-0.10506882518529892,1.398881435394287
1772734443401660200,4.04566015625,-0.09407325088977814,-0.09040805697441101,1.4172073602676392
1772734443411732500,4.055732421875,-0.13316862285137177,-0.0659734457731247,1.4587461948394775
1772734443421768000,4.065767822265625,-0.15515977144241333,-0.042760565876960754,1.480737328529358
1772734443431865300,4.075865234375,-0.20402899384498596,0.004886921960860491,1.5271631479263306
1772734443441882400,4.08588232421875,-0.22479841113090515,0.012217304669320583,1.578475832939148
1772734443472422000,4.116421875,-0.44715335965156555,0.10995574295520782,1.6029103994369507
1772734443482126600,4.126126708984375,-0.5326744914054871,0.10506882518529892,1.63467538356781
1772734443492154600,4.136154541015625,-0.6352998614311218,0.1368338167667389,1.6383405923843384
1772734443502139600,4.1461396484375,-0.6695083379745483,0.21135938167572021,1.566258430480957
1772734443512172300,4.15617236328125,-0.6780604124069214,0.23457226157188416,1.4624114036560059
1772734443522210000,4.1662099609375,-0.6878342628479004,0.19914206862449646,1.351233959197998
1772734443532813300,4.176813232421875,-0.6951646208763123,0.1160643994808197,1.2082914113998413
1772734443542190800,4.18619091796875,-0.7159340381622314,0.20891591906547546,1.0604621171951294
1772734443572562400,4.2165625,-0.6792821288108826,0.33719760179519653,0.7122688889503479
1772734443592269300,4.236269287109375,-0.6450737118721008,0.4691445231437683,0.46670106053352356
1772734443602240800,4.24624072265625,-0.6255260109901428,0.5558874011039734,0.2932153046131134
1772734443612251400,4.25625146484375,-0.616973876953125,0.6414085030555725,0.1514945775270462
1772734443622255600,4.266255615234375,-0.5913175344467163,0.7562511563301086,-0.012217304669320583
1772734443632317400,4.2763173828125,-0.5473352670669556,0.8246681094169617,-0.08918632566928864
1772734443642318800,4.28631884765625,-0.485027015209198,0.8930850028991699,-0.15271630883216858
1772734443652370400,4.296370361328125,-0.4092797040939331,0.9578366875648499,-0.21013765037059784
1772734443672771000,4.31677099609375,-0.23335053026676178,1.0775662660598755,-0.13805554807186127
1772734443682487300,4.3264873046875,-0.16249015927314758,1.1520918607711792,0.06230825558304787
1772734443693151000,4.33715087890625,-0.1062905490398407,1.2376129627227783,0.3323107063770294
1772734443702630000,4.3466298828125,-0.06230825558304787,1.3341296911239624,0.6572909951210022
1772734443714275000,4.358275146484375,0.004886921960860491,1.4526375532150269,1.2302825450897217
1772734443722659000,4.3666591796875,0.028099801391363144,1.4844025373458862,1.4196507930755615
1772734443732708400,4.376708251953125,0.05497787147760391,1.557706356048584,1.7629570960998535
1772734443742724000,4.38672412109375,0.0024434609804302454,1.6945401430130005,2.0952677726745605
1772734443752795000,4.396794921875,-0.08796459436416626,1.7849482297897339,2.14902400970459
1772734443782884600,4.426884521484375,-0.28099802136421204,1.93766450881958,1.9926424026489258
1772734443792952600,4.43695263671875,-0.3188716471195221,1.9242255687713623,2.063502788543701
1772734443802951000,4.446950927734375,-0.36651915311813354,1.8777997493743896,2.2736403942108154
1772734443813002500,4.45700244140625,-0.3836233615875244,1.7886134386062622,2.6230554580688477
1772734443823030000,4.467030029296875,-0.3982841372489929,1.6847662925720215,3.065321683883667
1772734443833107700,4.477107666015625,-0.34574973583221436,1.4306464195251465,3.4709362983703613
1772734443843127800,4.4871279296875,-0.3494149148464203,1.2986994981765747,3.8117990493774414
1772734443853793300,4.497793212890625,-0.4300491213798523,1.301142930984497,4.1221184730529785
1772734443876096300,4.52009619140625,-0.5241223573684692,1.1435397863388062,3.953519821166992
1772734443893363500,4.537363525390625,-0.6059783101081848,0.9957103729248047,3.02622652053833
1772734443903387600,4.5473876953125,-0.6414085030555725,0.8820894360542297,2.3579399585723877
1772734443913458400,4.55745849609375,-0.6646214127540588,0.720820963382721,1.576032280921936
1772734443923491600,4.56749169921875,-0.66584312915802,0.5803219676017761,0.8124507665634155
1772734443933540000,4.5775400390625,-0.6621779203414917,0.4948008358478546,0.17837265133857727
1772734443943579000,4.587578857421875,-0.6511823534965515,0.4398229718208313,-0.2822197377681732
1772734443953650400,4.597650390625,-0.6352998614311218,0.38728857040405273,-0.5632177591323853
1772734443983731700,4.627731689453125,-0.7122688889503479,0.12950342893600464,-0.6731734871864319
1772734443993804300,4.63780419921875,-0.7965682744979858,0.09040805697441101,-0.4960225820541382
1772734444003804200,4.64780419921875,-0.827111542224884,0.11972958594560623,-0.32009339332580566
1772734444014462500,4.65846240234375,-0.8442157506942749,0.16493362188339233,-0.15027284622192383
1772734444023871000,4.66787109375,-0.846659243106842,0.21135938167572021,-0.03298672288656235
1772734444035528700,4.67952880859375,-0.8356636762619019,0.24068090319633484,0.03176499158143997
1772734444043965400,4.68796533203125,-0.8185594081878662,0.251676470041275,0.06475171446800232
1772734444054013200,4.69801318359375,-0.8112290501594543,0.251676470041275,0.06475171446800232
1772734444084117000,4.728116943359375,-0.8148942589759827,0.21013765037059784,0.0012217304902151227
1772734444094173700,4.738173583984375,-0.7904596328735352,0.2272418737411499,0.009773843921720982
1772734444104193800,4.74819384765625,-0.7281513810157776,0.2675589919090271,0.010995574295520782
1772734444114263600,4.758263671875,-0.6426302194595337,0.3078760802745819,-0.013439035043120384
1772734444124276700,4.76827685546875,-0.6157521605491638,0.3237585723400116,-0.06841690838336945
1772734444134338600,4.778338623046875,-0.5717698931694031,0.3286454975605011,-0.13072516024112701
1772734444144409900,4.788409912109375,-0.5204572081565857,0.3396410644054413,-0.15882496535778046
1772734444154374400,4.79837451171875,-0.4911356568336487,0.375071257352829,-0.1111774742603302
1772734444164360700,4.808360595703125,-0.4593706727027893,0.375071257352829,0.059864792972803116
1772734444184386600,4.828386474609375,-0.33597588539123535,0.18448130786418915,0.6401867866516113
1772734444196906800,4.84090673828125,-0.35552358627319336,0.23335053026676178,1.016479730606079
1772734444204423000,4.8484228515625,-0.39217549562454224,0.2638937830924988,1.0592403411865234
1772734444214441500,4.85844140625,-0.485027015209198,0.3029891550540924,1.0005972385406494
1772734444224440300,4.8684404296875,-0.5326744914054871,0.3384193480014801,0.8796459436416626
1772734444234475800,4.878475830078125,-0.4740314185619354,0.35185837745666504,0.7648032903671265
1772734444244449000,4.888448974609375,-0.25045475363731384,0.31520646810531616,0.6035348773002625
1772734444254679000,4.898678955078125,-0.14782938361167908,0.26633724570274353,0.5082398653030396
1772734444264471000,4.908470947265625,-0.13927727937698364,0.20402899384498596,0.46547931432724
1772734444294521600,4.938521484375,-0.24678955972194672,0.19303341209888458,0.38240164518356323
1772734444304539400,4.948539306640625,-0.25534167885780334,0.2028072625398636,0.2638937830924988
1772734444314586600,4.958586669921875,-0.2370157092809677,0.18570303916931152,0.13805554807186127
1772734444324593000,4.968593017578125,-0.21380282938480377,0.17104226350784302,0.06230825558304787
1772734444335227600,4.9792275390625,-0.18936823308467865,0.18570303916931152,0.03787364438176155
1772734444344607000,4.98860693359375,-0.15393804013729095,0.23457226157188416,0.03176499158143997
1772734444356281300,5.00028125,-0.14782938361167908,0.3225368559360504,0.08429940044879913
1772734444364633300,5.00863330078125,-0.1661553531885147,0.3396410644054413,0.11362093687057495
1772734444374957600,5.01895751953125,-0.20891591906547546,0.37262779474258423,0.19547687470912933
1772734444404642800,5.048642822265625,-0.1514945775270462,0.4398229718208313,0.2919935882091522
1772734444414654000,5.058654052734375,-0.1258382350206375,0.4337143301963806,0.26022860407829285
1772734444424646000,5.06864599609375,-0.09040805697441101,0.3787364661693573,0.22113321721553802
1772734444434669300,5.07866943359375,-0.06841690838336945,0.29077184200286865,0.2015855312347412
1772734444444630000,5.088630126953125,-0.06841690838336945,0.2028072625398636,0.20402899384498596
1772734444454646800,5.098646728515625,-0.08429940044879913,0.17470745742321014,0.17348572611808777
1772734444464639000,5.108638916015625,-0.08918632566928864,0.16737708449363708,0.1612684279680252
1772734444474980400,5.11898046875,-0.0659734457731247,0.15760323405265808,0.16249015927314758
1772734444504729300,5.148729248046875,-0.00855211354792118,0.09529497474431992,-0.08429940044879913
1772734444517288400,5.161288330078125,-0.004886921960860491,0.01466076634824276,-0.19058994948863983
1772734444524836000,5.168836181640625,-0.004886921960860491,-0.025656340643763542,-0.15515977144241333
1772734444534885400,5.178885498046875,-0.025656340643763542,-0.01466076634824276,-0.0757472887635231
1772734444544910300,5.188910400390625,-0.04398229718208313,0.02321287989616394,-0.015882495790719986
1772734444554981000,5.198981201171875,-0.02321287989616394,0.04764748737215996,0.010995574295520782
1772734444564978700,5.208978759765625,0.01710422709584236,0.0403171069920063,0.03420845419168472
1772734444575344600,5.2193447265625,0.03787364438176155,0.00733038317412138,0.0757472887635231
1772734444605133300,5.24913330078125,0.015882495790719986,0.0708603709936142,0.14905111491680145
1772734444615179500,5.259179443359375,0.051312681287527084,0.11362093687057495,0.08796459436416626
1772734444625203700,5.26920361328125,0.07941248267889023,0.12339477986097336,0.07208210229873657
1772734444635262000,5.279261962890625,0.09896016865968704,0.04398229718208313,0.11362093687057495
1772734444645259000,5.289259033203125,0.10751228034496307,-0.00733038317412138,0.08552113175392151
1772734444655913000,5.299912841796875,-0.00366519158706069,0.013439035043120384,0.039095375686883926
1772734444665327900,5.309327880859375,-0.19547687470912933,0.08307767659425735,-0.22968533635139465
1772734444677292800,5.321292724609375,-0.30054569244384766,0.10018189996480942,-0.4691445231437683
1772734444716567600,5.360567626953125,-0.15882496535778046,0.08674286305904388,-0.25534167885780334
1772734444726590700,5.3705908203125,-0.16371189057826996,0.16371189057826996,-0.34086281061172485
1772734444736628700,5.380628662109375,-0.08185594528913498,0.15882496535778046,-0.598647952079773
1772734444746648300,5.3906484375,-0.028099801391363144,0.15027284622192383,-0.7330383062362671
1772734444756716500,5.400716552734375,-0.012217304669320583,0.16249015927314758,-0.8319984674453735
1772734444766732300,5.410732177734375,-0.039095375686883926,0.18936823308467865,-0.9969320893287659
1772734444777095200,5.42109521484375,-0.05375614017248154,0.19914206862449646,-1.2290608882904053
1772734444786807800,5.430807861328125,-0.04642575979232788,0.18570303916931152,-1.55892813205719
1772734444806896600,5.450896728515625,0.04886921867728233,0.09162978827953339,-2.1233675479888916
1772734444817578800,5.461578857421875,0.11850785464048386,0.036651913076639175,-2.367713689804077
1772734444826999800,5.470999755859375,0.2064724564552307,-0.05253441259264946,-2.4239132404327393
1772734444839562200,5.483562255859375,0.2981022298336029,-0.11850785464048386,-2.2101104259490967
1772734444848113700,5.49211376953125,0.17959438264369965,-0.17104226350784302,-1.8313740491867065
1772734444858180600,5.5021806640625,0.12217304855585098,-0.20891591906547546,-1.3768903017044067
1772734444868193800,5.51219384765625,0.11972958594560623,-0.024434609338641167,-0.8087855577468872
1772734444878559200,5.522559326171875,0.15271630883216858,0.0659734457731247,-0.15393804013729095
1772734444888288800,5.532288818359375,0.1014036312699318,0.09651670604944229,0.2736676335334778
1772734444898357800,5.542357666015625,0.02932153269648552,0.1514945775270462,0.4092797040939331
1772734444918433000,5.56243310546875,0.09040805697441101,0.44715335965156555,-0.0708603709936142
1772734444928461300,5.57246142578125,0.294437050819397,0.13316862285137177,-0.5021312236785889
1772734444938540800,5.582540771484375,0.4202753007411957,-0.04886921867728233,-0.856433093547821
1772734444948553700,5.5925537109375,0.3591887652873993,0.03298672288656235,-0.988379955291748
1772734444958612700,5.60261279296875,0.16493362188339233,-0.21502456068992615,-0.6377432942390442
1772734444968635000,5.612634765625,0.15271630883216858,-0.20525072515010834,-0.2076941877603531
1772734444979633700,5.623633544921875,0.0757472887635231,-0.03176499158143997,0.21135938167572021
1772734444988732000,5.63273193359375,0.08429940044879913,0.028099801391363144,0.375071257352829
1772734445000424200,5.644424072265625,0.15515977144241333,0.0403171069920063,0.4056145250797272
1772734445008846300,5.652846435546875,0.2174680233001709,0.05742133408784866,0.3396410644054413
1772734445018928000,5.66292822265625,0.24923302233219147,0.012217304669320583,0.2272418737411499
1772734445028907300,5.6729072265625,0.2174680233001709,-0.04642575979232788,0.11362093687057495
1772734445038925300,5.68292529296875,0.13805554807186127,-0.10995574295520782,-0.04153883829712868
1772734445048960000,5.6929599609375,0.05864306539297104,-0.14538592100143433,-0.16249015927314758
1772734445059029000,5.703029052734375,0.04153883829712868,-0.15760323405265808,-0.1918116807937622
1772734445069035800,5.713035888671875,0.0659734457731247,-0.15393804013729095,-0.2370157092809677
1772734445079397000,5.723397216796875,0.06108652427792549,-0.14905111491680145,-0.3029891550540924
1772734445089117200,5.7331171875,0.045204028487205505,-0.16371189057826996,-0.2834414839744568
1772734445099189500,5.743189453125,0.036651913076639175,-0.16859880089759827,-0.2626720666885376
1772734445119260700,5.7632607421875,0.0024434609804302454,-0.13805554807186127,-0.19303341209888458
1772734445129319000,5.77331884765625,-0.0012217304902151227,-0.1270599663257599,-0.16982053220272064
1772734445139996700,5.78399658203125,0.009773843921720982,-0.12950342893600464,-0.16737708449363708
1772734445149387500,5.793387451171875,0.02687807008624077,-0.1270599663257599,-0.15882496535778046
1772734445161923600,5.805923583984375,0.04642575979232788,-0.11239920556545258,-0.19547687470912933
1772734445169493800,5.81349365234375,0.05742133408784866,-0.10995574295520782,-0.2064724564552307
1772734445179873800,5.823873779296875,0.07819075137376785,-0.10873401165008545,-0.23457226157188416
1772734445189570000,5.833570068359375,0.0708603709936142,-0.1111774742603302,-0.2968805134296417
1772734445199627800,5.843627685546875,0.039095375686883926,-0.10995574295520782,-0.38606682419776917
1772734445219720000,5.863719970703125,0.08429940044879913,-0.1661553531885147,-0.34208452701568604
1772734445229731300,5.8737314453125,0.07819075137376785,-0.16004669666290283,-0.2480112910270691
1772734445239790000,5.8837900390625,0.05864306539297104,-0.14905111491680145,-0.15882496535778046
1772734445249816600,5.893816650390625,0.03420845419168472,-0.12950342893600464,-0.1014036312699318
1772734445259894800,5.903894775390625,0.019547687843441963,-0.11484266817569733,-0.10262536257505417
1772734445269901800,5.91390185546875,0.018325956538319588,-0.09529497474431992,-0.15882496535778046
1772734445280265200,5.92426513671875,0.03176499158143997,-0.07819075137376785,-0.21013765037059784
1772734445289985300,5.9339853515625,0.0403171069920063,-0.0659734457731247,-0.25045475363731384
1772734445300662300,5.944662353515625,0.05009094998240471,-0.0757472887635231,-0.28588494658470154
1772734445310051800,5.9540517578125,0.0403171069920063,-0.05497787147760391,-0.25534167885780334
1772734445330147600,5.974147705078125,0.05497787147760391,-0.0024434609804302454,-0.024434609338641167
1772734445340215800,5.9842158203125,0.0659734457731247,0.021991148591041565,0.06230825558304787
1772734445350212900,5.994212890625,0.0757472887635231,0.036651913076639175,0.10384709388017654
1772734445360259800,6.004259765625,0.06963863968849182,0.0403171069920063,0.08674286305904388
1772734445370291200,6.014291259765625,0.06352998316287994,0.036651913076639175,0.0403171069920063
1772734445380671000,6.0246708984375,0.06475171446800232,0.021991148591041565,-0.02076941914856434
1772734445390357500,6.034357421875,0.06352998316287994,-0.00855211354792118,-0.06352998316287994
1772734445400406800,6.04440673828125,0.059864792972803116,-0.04642575979232788,-0.06963863968849182
1772734445410429200,6.05442919921875,0.05009094998240471,-0.06108652427792549,-0.051312681287527084
1772734445440553500,6.084553466796875,0.01466076634824276,-0.10018189996480942,-0.06719517707824707
1772734445450574600,6.09457470703125,0.018325956538319588,-0.12950342893600464,-0.10018189996480942
1772734445461364700,6.10536474609375,0.013439035043120384,-0.1368338167667389,-0.10995574295520782
1772734445470649900,6.11464990234375,-0.00366519158706069,-0.1258382350206375,-0.11728613078594208
1772734445483522300,6.127522216796875,-0.01466076634824276,-0.10995574295520782,-0.10873401165008545
1772734445491024600,6.135024658203125,-0.012217304669320583,-0.09285151958465576,-0.09896016865968704
1772734445500842000,6.144842041015625,0.0012217304902151227,-0.08429940044879913,-0.0708603709936142
1772734445510849800,6.154849853515625,0.0012217304902151227,-0.07330382615327835,-0.028099801391363144
1772734445540971800,6.1849716796875,-0.02932153269648552,-0.05864306539297104,0.0659734457731247
1772734445550956000,6.1949560546875,-0.04153883829712868,-0.05009094998240471,0.05497787147760391
1772734445560998400,6.204998291015625,-0.0354301854968071,-0.05253441259264946,0.02687807008624077
1772734445570999000,6.2149990234375,-0.019547687843441963,-0.06963863968849182,-0.015882495790719986
1772734445581382400,6.22538232421875,-0.012217304669320583,-0.06352998316287994,-0.05253441259264946
1772734445591068200,6.235068115234375,-0.006108652334660292,-0.0403171069920063,-0.06108652427792549
1772734445601106400,6.2451064453125,0.0024434609804302454,-0.009773843921720982,-0.06963863968849182
1772734445611123200,6.255123291015625,0.021991148591041565,0.00733038317412138,-0.06841690838336945
1772734445621802000,6.265802001953125,0.036651913076639175,0.00855211354792118,-0.04886921867728233
1772734445642856200,6.286856201171875,0.030543262138962746,0.021991148591041565,-0.02321287989616394
1772734445651271200,6.295271240234375,0.024434609338641167,0.03176499158143997,-0.03787364438176155
1772734445661357300,6.305357421875,0.013439035043120384,0.0403171069920063,-0.07452555745840073
1772734445671353600,6.315353515625,0.009773843921720982,0.04153883829712868,-0.09773843735456467
1772734445681713000,6.325712890625,0.01466076634824276,0.03420845419168472,-0.0806342139840126
1772734445691443500,6.335443359375,0.010995574295520782,0.045204028487205505,-0.036651913076639175
1772734445701506600,6.345506591796875,0.024434609338641167,0.05009094998240471,0.03420845419168472
1772734445711499500,6.35549951171875,0.028099801391363144,0.036651913076639175,0.06108652427792549
1772734445721537500,6.36553759765625,0.024434609338641167,0.013439035043120384,0.039095375686883926
1772734445751602200,6.395602294921875,0.0024434609804302454,-0.025656340643763542,-0.15882496535778046
1772734445761645000,6.40564501953125,-0.00733038317412138,-0.028099801391363144,-0.16737708449363708
1772734445771662800,6.415662841796875,-0.015882495790719986,-0.03176499158143997,-0.1417207419872284
1772734445782638800,6.426638916015625,-0.010995574295520782,-0.03787364438176155,-0.10262536257505417
1772734445791713300,6.43571337890625,-0.0012217304902151227,-0.03176499158143997,-0.05253441259264946
1772734445804257800,6.4482578125,-0.00366519158706069,-0.019547687843441963,-0.012217304669320583
1772734445811780600,6.455780517578125,-0.00733038317412138,-0.018325956538319588,-0.00855211354792118
1772734445821837800,6.465837890625,-0.012217304669320583,-0.018325956538319588,-0.00733038317412138
1772734445831816700,6.475816650390625,-0.028099801391363144,-0.02321287989616394,-0.028099801391363144
1772734445861926700,6.5059267578125,-0.05497787147760391,0,-0.0024434609804302454
1772734445871915500,6.51591552734375,-0.0354301854968071,0,0.03176499158143997
1772734445882264300,6.526264404296875,-0.01466076634824276,0.00733038317412138,0.05375614017248154
1772734445891969000,6.535968994140625,0.0012217304902151227,0.015882495790719986,0.04886921867728233
1772734445902028000,6.546028076171875,0.013439035043120384,0.024434609338641167,0.03787364438176155
1772734445912020700,6.556020751953125,0.01466076634824276,0.019547687843441963,0.04153883829712868
1772734445922049800,6.5660498046875,0.009773843921720982,0.012217304669320583,0.05497787147760391
1772734445932078600,6.57607861328125,0.004886921960860491,0.01466076634824276,0.05497787147760391
1772734445952119300,6.596119384765625,0.030543262138962746,0.02321287989616394,0.02321287989616394
1772734445963760000,6.607760009765625,0.04642575979232788,0,-0.04398229718208313
1772734445972206800,6.616206787109375,0.05009094998240471,-0.02076941914856434,-0.09285151958465576
1772734445982572800,6.62657275390625,0.04398229718208313,-0.02321287989616394,-0.12828169763088226
1772734445992257800,6.6362578125,0.045204028487205505,-0.010995574295520782,-0.13072516024112701
1772734446002301700,6.6463017578125,0.06108652427792549,0.009773843921720982,-0.10506882518529892
1772734446012308700,6.656308837890625,0.07452555745840073,0.02932153269648552,-0.0659734457731247
1772734446022360800,6.66636083984375,0.07941248267889023,0.039095375686883926,-0.021991148591041565
1772734446032343800,6.67634375,0.07941248267889023,0.039095375686883926,0.00366519158706069
1772734446042384400,6.68638427734375,0.0806342139840126,0.0354301854968071,0.01466076634824276
1772734446082792400,6.72679248046875,0.07330382615327835,0.02932153269648552,0.08429940044879913
1772734446092642300,6.736642333984375,0.07819075137376785,0.0354301854968071,0.09040805697441101
1772734446103159300,6.7471591796875,0.09651670604944229,0.0403171069920063,0.0659734457731247
1772734446112547300,6.75654736328125,0.1160643994808197,0.03298672288656235,0.015882495790719986
1772734446125081300,6.769081298828125,0.11850785464048386,0.012217304669320583,-0.04642575979232788
1772734446132637200,6.77663720703125,0.10873401165008545,-0.010995574295520782,-0.10018189996480942
1772734446142715100,6.786715087890625,0.10384709388017654,-0.02687807008624077,-0.13927727937698364
1772734446152710700,6.796710693359375,0.10751228034496307,-0.02321287989616394,-0.15393804013729095
1772734446183153400,6.8271533203125,0.11484266817569733,0.0403171069920063,-0.1319468915462494
1772734446192846800,6.836846923828125,0.11728613078594208,0.06230825558304787,-0.08796459436416626
1772734446202894800,6.846894775390625,0.10384709388017654,0.0806342139840126,-0.02076941914856434
1772734446212905500,6.856905517578125,0.07208210229873657,0.10018189996480942,0.06230825558304787
1772734446222971100,6.86697119140625,0.0659734457731247,0.10262536257505417,0.09651670604944229
1772734446232967700,6.8769677734375,0.05497787147760391,0.10384709388017654,0.1014036312699318
1772734446243017700,6.887017822265625,0.04153883829712868,0.10873401165008545,0.0806342139840126
1772734446253051100,6.897051025390625,0.03176499158143997,0.11728613078594208,0.05619960278272629
1772734446263726600,6.9077265625,0.02076941914856434,0.12461651116609573,0.04764748737215996
1772734446285120300,6.929120361328125,-0.010995574295520782,0.1270599663257599,0.17837265133857727
1772734446293226800,6.937226806640625,0,0.12095131725072861,0.2174680233001709
1772734446303296000,6.9472958984375,0.03176499158143997,0.1014036312699318,0.28099802136421204
1772734446313294800,6.957294921875,0.06108652427792549,0.07819075137376785,0.2968805134296417
1772734446323339300,6.96733935546875,0.07696902006864548,0.051312681287527084,0.2528982162475586
1772734446333391000,6.97739111328125,0.08429940044879913,0.02076941914856434,0.1111774742603302
1772734446343449300,6.987449462890625,0.12095131725072861,-0.03787364438176155,0
1772734446353442000,6.997442138671875,0.14294247329235077,-0.06352998316287994,-0.08918632566928864
1772734446363486500,7.007486572265625,0.15393804013729095,-0.07452555745840073,-0.15271630883216858
1772734446383902200,7.027902099609375,0.14782938361167908,-0.07696902006864548,-0.21380282938480377
1772734446393583400,7.037583251953125,0.15271630883216858,-0.07696902006864548,-0.2370157092809677
1772734446403627500,7.04762744140625,0.16859880089759827,-0.09651670604944229,-0.24923302233219147
1772734446413636400,7.05763623046875,0.18081611394882202,-0.10995574295520782,-0.24678955972194672
1772734446424307000,7.068306884765625,0.17959438264369965,-0.11484266817569733,-0.22113321721553802
1772734446433700000,7.0777001953125,0.1563815027475357,-0.09529497474431992,-0.20525072515010834
1772734446446230000,7.09022998046875,0.1319468915462494,-0.07941248267889023,-0.19547687470912933
1772734446453780000,7.097780029296875,0.12828169763088226,-0.0806342139840126,-0.16982053220272064
1772734446463837000,7.1078369140625,0.10751228034496307,-0.10506882518529892,-0.0708603709936142
1772734446484187400,7.1281875,0.07208210229873657,-0.12828169763088226,0.04764748737215996
1772734446493919000,7.1379189453125,0.06841690838336945,-0.11362093687057495,0.06108652427792549
1772734446503970600,7.147970458984375,0.0659734457731247,-0.10384709388017654,0.03298672288656235
1772734446513930000,7.157929931640625,0.06475171446800232,-0.12339477986097336,-0.010995574295520782
1772734446523963400,7.16796337890625,0.059864792972803116,-0.13072516024112701,-0.07696902006864548
1772734446533950200,7.1779501953125,0.06352998316287994,-0.13316862285137177,-0.14049901068210602
1772734446543975200,7.18797509765625,0.08185594528913498,-0.1514945775270462,-0.15882496535778046
1772734446553929000,7.197928955078125,0.09773843735456467,-0.17592918872833252,-0.14538592100143433
1772734446563929900,7.207929931640625,0.10384709388017654,-0.19792033731937408,-0.10384709388017654
1772734446573918200,7.217918212890625,0.09773843735456467,-0.22602014243602753,-0.024434609338641167
1772734446605522700,7.249522705078125,0.12461651116609573,-0.3481931984424591,0.15882496535778046
1772734446613933300,7.257933349609375,0.12950342893600464,-0.43249258399009705,0.22479841113090515
1772734446623970300,7.26797021484375,0.13805554807186127,-0.5143485069274902,0.24434609711170197
1772734446633930200,7.27793017578125,0.1514945775270462,-0.5693264007568359,0.21502456068992615
1772734446643946500,7.287946533203125,0.1466076523065567,-0.5791002511978149,0.14538592100143433
1772734446653962800,7.297962646484375,0.12339477986097336,-0.5485569834709167,0.021991148591041565
1772734446664027400,7.30802734375,0.1319468915462494,-0.5681046843528748,-0.1319468915462494
1772734446674022700,7.318022705078125,0.16249015927314758,-0.6047565937042236,-0.2822197377681732
1772734446684379600,7.328379638671875,0.18570303916931152,-0.6487388610839844,-0.39095374941825867
1772734446704189700,7.348189697265625,0.13805554807186127,-0.7379252314567566,-0.4129449129104614
1772734446714192000,7.35819189453125,0.07819075137376785,-0.7330383062362671,-0.3677408695220947
1772734446724237600,7.368237548828125,0.0024434609804302454,-0.6976081132888794,-0.2822197377681732
1772734446734281700,7.37828173828125,-0.02932153269648552,-0.6768386960029602,-0.23335053026676178
1772734446744956400,7.388956298828125,-0.059864792972803116,-0.6548475623130798,-0.2076941877603531
1772734446754341400,7.39834130859375,-0.09285151958465576,-0.6255260109901428,-0.17348572611808777
1772734446766884600,7.410884521484375,-0.11850785464048386,-0.5937610268592834,-0.12950342893600464
1772734446774438700,7.418438720703125,-0.1368338167667389,-0.5571091175079346,-0.09162978827953339
1772734446784813000,7.42881298828125,-0.14905111491680145,-0.5241223573684692,-0.06352998316287994
1772734446794500000,7.4385,-0.16371189057826996,-0.475253164768219,-0.036651913076639175
1772734446814559500,7.4585595703125,-0.1466076523065567,-0.4129449129104614,-0.02932153269648552
1772734446824625200,7.468625244140625,-0.13316862285137177,-0.4105014503002167,-0.039095375686883926
1772734446834622000,7.4786220703125,-0.1319468915462494,-0.4178318381309509,-0.05619960278272629
1772734446844667400,7.48866748046875,-0.1417207419872284,-0.41661009192466736,-0.15027284622192383
1772734446854686700,7.498686767578125,-0.13439035415649414,-0.40683624148368835,-0.2431243658065796
1772734446864748800,7.508748779296875,-0.11728613078594208,-0.3995058834552765,-0.3274237811565399
1772734446874746600,7.51874658203125,-0.08918632566928864,-0.4092797040939331,-0.3885102868080139
1772734446885104400,7.5291044921875,-0.051312681287527084,-0.42638394236564636,-0.43615779280662537
1772734446894901500,7.538901611328125,-0.013439035043120384,-0.4337143301963806,-0.4642575979232788
1772734446905495300,7.549495361328125,0.024434609338641167,-0.44226643443107605,-0.4801400899887085
1772734446926578000,7.570577880859375,0.09896016865968704,-0.4447098970413208,-0.5057964324951172
1772734446934986800,7.57898681640625,0.13439035415649414,-0.4642575979232788,-0.5277875661849976
1772734446945048800,7.589048828125,0.18325957655906677,-0.48747047781944275,-0.5510004758834839
1772734446955041300,7.599041259765625,0.2370157092809677,-0.4703662395477295,-0.5705481171607971
1772734446965082600,7.60908251953125,0.28955012559890747,-0.475253164768219,-0.5766568183898926
1772734446975112000,7.61911181640625,0.3677408695220947,-0.475253164768219,-0.5424483418464661
1772734446985478700,7.629478759765625,0.4031710624694824,-0.4642575979232788,-0.4911356568336487
1772734446995155500,7.639155517578125,0.4178318381309509,-0.42271876335144043,-0.4300491213798523
1772734447005201400,7.649201416015625,0.42271876335144043,-0.3689626157283783,-0.38240164518356323
1772734447035277000,7.679277099609375,0.4386012554168701,-0.14049901068210602,-0.3799581825733185
1772734447045318000,7.68931787109375,0.4544837474822998,-0.0354301854968071,-0.38240164518356323
1772734447055352800,7.699352783203125,0.475253164768219,0.025656340643763542,-0.3640756905078888
1772734447066020900,7.710020751953125,0.504574716091156,0.0659734457731247,-0.34697145223617554
1772734447075404300,7.719404296875,0.5265658497810364,0.11850785464048386,-0.3127630054950714
1772734447088250600,7.732250732421875,0.5803219676017761,0.22479841113090515,-0.23579397797584534
1772734447095717600,7.739717529296875,0.6291912198066711,0.294437050819397,-0.20036379992961884
1772734447105525000,7.74952490234375,0.6743952035903931,0.33108896017074585,-0.17104226350784302
1772734447115512600,7.7595126953125,0.7073819637298584,0.33475416898727417,-0.1514945775270462
1772734447135595800,7.779595703125,0.720820963382721,0.3836233615875244,-0.21135938167572021
1772734447145656800,7.78965673828125,0.7257078886032104,0.4153883755207062,-0.22602014243602753
1772734447155660000,7.799659912109375,0.7428121566772461,0.4398229718208313,-0.2272418737411499
1772734447165700600,7.80970068359375,0.7525860071182251,0.4434881806373596,-0.24434609711170197
1772734447175712800,7.819712646484375,0.7428121566772461,0.44104471802711487,-0.2883284091949463
1772734447186088000,7.830087890625,0.7086036801338196,0.43737950921058655,-0.3225368559360504
1772734447195774200,7.839774169921875,0.66584312915802,0.4398229718208313,-0.34697145223617554
1772734447205805600,7.8498056640625,0.618195652961731,0.43127086758613586,-0.3494149148464203
1772734447215788500,7.85978857421875,0.5766568183898926,0.4202753007411957,-0.3127630054950714
1772734447226421800,7.870421875,0.513126790523529,0.40072759985923767,-0.21991148591041565
1772734447235776500,7.879776611328125,0.49357911944389343,0.43249258399009705,-0.13439035415649414
1772734447247404800,7.89140478515625,0.46792277693748474,0.4544837474822998,-0.04153883829712868
1772734447255815700,7.899815673828125,0.4447098970413208,0.4544837474822998,0.10262536257505417
1772734447265843500,7.909843505859375,0.42638394236564636,0.4386012554168701,0.2480112910270691
1772734447275809800,7.919809814453125,0.4031710624694824,0.4129449129104614,0.3640756905078888
1772734447286133800,7.9301337890625,0.3738495409488678,0.39095374941825867,0.44715335965156555
1772734447295837200,7.939837158203125,0.34208452701568604,0.37140607833862305,0.4862487316131592
1772734447305867500,7.949867431640625,0.31031954288482666,0.3689626157283783,0.4899139404296875
1772734447315832600,7.95983251953125,0.2834414839744568,0.384845107793808,0.44715335965156555
1772734447325844500,7.969844482421875,0.26633724570274353,0.40683624148368835,0.3689626157283783
1772734447345887200,7.98988720703125,0.20525072515010834,0.46670106053352356,0.1722639948129654
1772734447355857000,7.99985693359375,0.16004669666290283,0.4911356568336487,0.04886921867728233
1772734447365871600,8.00987158203125,0.12095131725072861,0.44837507605552673,-0.09896016865968704
1772734447375861500,8.019861572265626,0.1014036312699318,0.42760565876960754,-0.11728613078594208
1772734447386810000,8.03081005859375,0.08918632566928864,0.4447098970413208,-0.1820378452539444
1772734447395870200,8.0398701171875,0.06230825558304787,0.4740314185619354,-0.31154128909111023
1772734447408367600,8.05236767578125,0.039095375686883926,0.46303585171699524,-0.4740314185619354
1772734447415889000,8.059888916015625,0.042760565876960754,0.41661009192466736,-0.6145304441452026
1772734447425913300,8.069913330078125,0.0708603709936142,0.3640756905078888,-0.6805039048194885
1772734447435875600,8.07987548828125,0.11362093687057495,0.3323107063770294,-0.656069278717041
1772734447455993900,8.099993896484374,0.20525072515010834,0.31031954288482666,-0.5815436840057373
1772734447475901200,8.119901123046875,0.24556782841682434,0.2785545587539673,-0.807563841342926
1772734447486231800,8.130231689453124,0.2687807083129883,0.1918116807937622,-1.0409144163131714
1772734447495928000,8.139927978515624,0.304210901260376,0.18814650177955627,-1.1606439352035522
1772734447505975000,8.14997509765625,0.3078760802745819,0.13439035415649414,-1.2021827697753906
1772734447515950600,8.15995068359375,0.3237585723400116,0.11728613078594208,-1.2180652618408203
1772734447525968600,8.16996875,0.3445279896259308,0.09285151958465576,-1.1924089193344116
1772734447535999500,8.17999951171875,0.37751471996307373,0.09407325088977814,-1.1508700847625732
1772734447546642000,8.190641845703125,0.41172316670417786,0.1258382350206375,-1.1276572942733765
1772734447567648800,8.211648681640625,0.3591887652873993,0.13805554807186127,-1.1447614431381226
1772734447576039000,8.220038818359376,0.33597588539123535,0.15760323405265808,-1.1618657112121582
1772734447586409200,8.2304091796875,0.31642818450927734,0.1514945775270462,-1.166752576828003
1772734447596079600,8.24007958984375,0.2968805134296417,0.13316862285137177,-1.1557570695877075
1772734447606109400,8.250109375,0.2736676335334778,0.09896016865968704,-1.0922271013259888
1772734447616098600,8.2600986328125,0.2528982162475586,0.08429940044879913,-0.9859365224838257
1772734447626136800,8.27013671875,0.19058994948863983,0.09162978827953339,-0.7843509912490845
1772734447636106000,8.28010595703125,0.16004669666290283,0.1062905490398407,-0.6707300543785095
1772734447646193700,8.290193603515625,0.1368338167667389,0.11362093687057495,-0.5473352670669556
1772734447656131000,8.300131103515625,0.13561208546161652,0.13561208546161652,-0.4153883755207062
1772734447666153200,8.3101533203125,0.13561208546161652,0.14905111491680145,-0.3188716471195221
1772734447676146700,8.320146728515626,0.13316862285137177,0.14538592100143433,-0.22846360504627228
1772734447686520000,8.33052001953125,0.1319468915462494,0.15027284622192383,-0.1514945775270462
1772734447696217300,8.34021728515625,0.11850785464048386,0.1563815027475357,-0.11728613078594208
1772734447706848300,8.35084814453125,0.1062905490398407,0.1612684279680252,-0.08918632566928864
1772734447716238800,8.36023876953125,0.10262536257505417,0.1612684279680252,-0.06841690838336945
1772734447728772000,8.372772216796875,0.08796459436416626,0.13316862285137177,-0.07941248267889023
1772734447736306200,8.38030615234375,0.08307767659425735,0.11850785464048386,-0.08429940044879913
1772734447746337800,8.390337890625,0.06963863968849182,0.08674286305904388,-0.08552113175392151
1772734447756334600,8.40033447265625,0.06230825558304787,0.05864306539297104,-0.08307767659425735
1772734447766388700,8.410388671875,0.04642575979232788,0.05375614017248154,-0.03420845419168472
1772734447776387300,8.42038720703125,0.0403171069920063,0.0806342139840126,0.01466076634824276
1772734447786726100,8.43072607421875,0.03787364438176155,0.1014036312699318,0.0659734457731247
1772734447796406800,8.44040673828125,0.03298672288656235,0.09773843735456467,0.10506882518529892
1772734447806463000,8.450462890625,0.025656340643763542,0.08185594528913498,0.1319468915462494
1772734447816446500,8.460446533203125,0.021991148591041565,0.0659734457731247,0.16493362188339233
1772734447826486300,8.470486328125,0.01466076634824276,0.04886921867728233,0.16859880089759827
1772734447836470000,8.480469970703124,0.004886921960860491,0.030543262138962746,0.11728613078594208
1772734447846522600,8.490522705078124,0.010995574295520782,0.0012217304902151227,0.042760565876960754
1772734447876536800,8.520536865234375,0.06719517707824707,-0.0354301854968071,-0.12095131725072861
1772734447888496600,8.53249658203125,0.06963863968849182,-0.010995574295520782,-0.1111774742603302
1772734447896621800,8.540621826171876,0.06475171446800232,-0.012217304669320583,-0.0806342139840126
1772734447906671600,8.550671630859375,0.05864306539297104,-0.02321287989616394,-0.04398229718208313
1772734447916690700,8.560690673828125,0.05009094998240471,-0.03420845419168472,-0.024434609338641167
1772734447926773200,8.570773193359376,0.05375614017248154,-0.04153883829712868,-0.02321287989616394
1772734447936806100,8.58080615234375,0.06475171446800232,-0.04398229718208313,-0.04642575979232788
1772734447946853400,8.590853271484375,0.07452555745840073,-0.04764748737215996,-0.09285151958465576
1772734447956872000,8.600871826171876,0.08429940044879913,-0.051312681287527084,-0.1258382350206375
1772734447987302000,8.631302001953125,0.12461651116609573,-0.0806342139840126,-0.15271630883216858
1772734447997005800,8.641005859375,0.12950342893600464,-0.0708603709936142,-0.14905111491680145
1772734448007072500,8.651072509765624,0.1258382350206375,-0.05619960278272629,-0.1417207419872284
1772734448017072400,8.661072265625,0.11728613078594208,-0.06475171446800232,-0.14049901068210602
1772734448027726600,8.6717265625,0.11362093687057495,-0.08307767659425735,-0.1417207419872284
1772734448037135600,8.681135498046874,0.1062905490398407,-0.08796459436416626,-0.15882496535778046
1772734448049683200,8.69368310546875,0.09651670604944229,-0.07819075137376785,-0.18814650177955627
1772734448057219600,8.701219482421875,0.07696902006864548,-0.06963863968849182,-0.22113321721553802
1772734448087675100,8.731675048828125,0.09773843735456467,-0.10262536257505417,-0.26022860407829285
1772734448097366800,8.74136669921875,0.10873401165008545,-0.1111774742603302,-0.24190263450145721
1772734448107422500,8.75142236328125,0.1160643994808197,-0.09529497474431992,-0.22846360504627228
1772734448117445400,8.7614453125,0.1258382350206375,-0.08185594528913498,-0.23090706765651703
1772734448127504600,8.771504638671875,0.13439035415649414,-0.07941248267889023,-0.24190263450145721
1772734448137482200,8.781482177734375,0.15882496535778046,-0.08185594528913498,-0.28466320037841797
1772734448147528400,8.791528564453126,0.1869247704744339,-0.09407325088977814,-0.4141666293144226
1772734448157519600,8.80151953125,0.19303341209888458,-0.09407325088977814,-0.5167919993400574
1772734448167567400,8.8115673828125,0.18936823308467865,-0.10262536257505417,-0.5949827432632446
1772734448197557000,8.841556884765625,0.19425514340400696,-0.11972958594560623,-0.6157521605491638
1772734448209243000,8.853242919921875,0.1869247704744339,-0.10995574295520782,-0.5644394755363464
1772734448217596700,8.8615966796875,0.18936823308467865,-0.10751228034496307,-0.5229006409645081
1772734448227612200,8.871612060546875,0.1869247704744339,-0.09773843735456467,-0.5021312236785889
1772734448237596200,8.88159619140625,0.1722639948129654,-0.09040805697441101,-0.49357911944389343
1772734448247644700,8.891644775390626,0.15027284622192383,-0.08918632566928864,-0.47280970215797424
1772734448257621800,8.901621826171874,0.11728613078594208,-0.09651670604944229,-0.4447098970413208
1772734448267630800,8.911630859375,0.06963863968849182,-0.10873401165008545,-0.4105014503002167
1772734448297638000,8.941637939453125,-0.05009094998240471,-0.06719517707824707,-0.34697145223617554
1772734448307670000,8.951669921875,-0.05619960278272629,-0.04642575979232788,-0.3286454975605011
1772734448317652700,8.96165283203125,-0.05497787147760391,-0.045204028487205505,-0.2565633952617645
1772734448327681800,8.971681884765625,-0.04642575979232788,-0.06352998316287994,-0.10873401165008545
1772734448337689600,8.981689697265624,-0.042760565876960754,-0.06352998316287994,0.05742133408784866
1772734448348345600,8.992345703125,-0.04153883829712868,-0.05253441259264946,0.2015855312347412
1772734448357751600,9.00175146484375,-0.045204028487205505,-0.0403171069920063,0.3176499307155609
1772734448370302200,9.01430224609375,-0.05009094998240471,-0.009773843921720982,0.3543018400669098
1772734448397893000,9.04189306640625,-0.04764748737215996,0.00366519158706069,0.17348572611808777
1772734448407956500,9.05195654296875,-0.05497787147760391,-0.015882495790719986,0.06719517707824707
1772734448417966300,9.06196630859375,-0.05864306539297104,-0.021991148591041565,0.015882495790719986
1772734448428013000,9.072012939453124,-0.05742133408784866,-0.013439035043120384,-0.00855211354792118
1772734448438026000,9.08202587890625,-0.045204028487205505,0.00855211354792118,0.00733038317412138
1772734448448092700,9.0920927734375,-0.04153883829712868,0.025656340643763542,0.03176499158143997
1772734448458102500,9.1021025390625,-0.042760565876960754,0.030543262138962746,0.04153883829712868
1772734448468155600,9.11215576171875,-0.030543262138962746,0.019547687843441963,0.09285151958465576
1772734448478178600,9.122178466796875,-0.02321287989616394,0.015882495790719986,0.16249015927314758
1772734448488577800,9.132577880859374,-0.03176499158143997,0.01466076634824276,0.18081611394882202
1772734448518410500,9.162410400390625,-0.06108652427792549,0.06230825558304787,0.07819075137376785
1772734448530098000,9.174097900390626,-0.08552113175392151,0.06475171446800232,0.00733038317412138
1772734448538553300,9.18255322265625,-0.1014036312699318,0.039095375686883926,-0.02687807008624077
1772734448548609500,9.192609619140624,-0.09896016865968704,0.02932153269648552,-0.04642575979232788
1772734448558650600,9.202650634765625,-0.0806342139840126,0.03298672288656235,-0.01710422709584236
1772734448568744700,9.21274462890625,-0.06841690838336945,0.0403171069920063,-0.025656340643763542
1772734448578756600,9.222756591796875,-0.05742133408784866,0.05009094998240471,-0.02687807008624077
1772734448589111000,9.233111083984374,-0.06963863968849182,0.0354301854968071,-0.05009094998240471
1772734448598810400,9.242810302734375,-0.0757472887635231,0.0012217304902151227,-0.05497787147760391
1772734448608881200,9.252881103515625,-0.07941248267889023,-0.012217304669320583,-0.045204028487205505
1772734448618868200,9.2628681640625,-0.09773843735456467,0.00366519158706069,-0.04764748737215996
1772734448628900600,9.272900634765625,-0.1258382350206375,0.019547687843441963,-0.06108652427792549
1772734448638899700,9.282899658203124,-0.1514945775270462,0.009773843921720982,-0.09040805697441101
1772734448648975000,9.29297509765625,-0.16982053220272064,-0.02932153269648552,-0.13927727937698364
1772734448658971000,9.302970947265624,-0.1820378452539444,-0.06963863968849182,-0.12217304855585098
1772734448669611500,9.313611572265625,-0.19058994948863983,-0.08674286305904388,-0.09529497474431992
1772734448678999300,9.322999267578124,-0.1820378452539444,-0.0659734457731247,-0.045204028487205505
1772734448691852000,9.33585205078125,-0.19914206862449646,-0.07330382615327835,0
1772734448721167000,9.3651669921875,-0.19425514340400696,-0.09407325088977814,0.18814650177955627
1772734448731249000,9.375248779296875,-0.2174680233001709,-0.06108652427792549,0.14538592100143433
1772734448741282000,9.385281982421875,-0.19792033731937408,-0.042760565876960754,0.1014036312699318
1772734448751344600,9.3953447265625,-0.18081611394882202,-0.0403171069920063,0.0659734457731247
1772734448761481500,9.4054814453125,-0.18448130786418915,-0.0403171069920063,0.02932153269648552
1772734448771435500,9.415435546875,-0.1869247704744339,-0.03298672288656235,0.006108652334660292
1772734448781456100,9.4254560546875,-0.16859880089759827,-0.015882495790719986,-0.0012217304902151227
1772734448791824600,9.43582470703125,-0.14782938361167908,-0.009773843921720982,-0.03298672288656235
1772734448801534200,9.4455341796875,-0.13316862285137177,-0.004886921960860491,-0.04642575979232788
1772734448821629700,9.465629638671874,-0.08674286305904388,0.02687807008624077,-0.024434609338641167
1772734448832304000,9.47630419921875,-0.07452555745840073,0.059864792972803116,-0.03176499158143997
1772734448841712600,9.485712646484375,-0.06841690838336945,0.06230825558304787,-0.04642575979232788
1772734448853440500,9.4974404296875,-0.0403171069920063,0.00366519158706069,-0.13927727937698364
1772734448861835500,9.50583544921875,-0.05009094998240471,0.00733038317412138,-0.2968805134296417
1772734448871896800,9.515896728515624,-0.00733038317412138,-0.036651913076639175,-0.3139847218990326
1772734448881926000,9.52592578125,0.02076941914856434,-0.006108652334660292,-0.24678955972194672
1772734448892323600,9.536323486328126,-0.015882495790719986,-0.015882495790719986,-0.3176499307155609
1772734448902028300,9.5460283203125,-0.08307767659425735,-0.0659734457731247,-0.4544837474822998
1772734448922137000,9.56613720703125,-0.1417207419872284,-0.16493362188339233,-0.3066543638706207
1772734448932231200,9.576231201171876,-0.1466076523065567,-0.1111774742603302,-0.1820378452539444
1772734448942263000,9.586262939453125,-0.13439035415649414,-0.00733038317412138,-0.10018189996480942
1772734448952336100,9.596336181640625,-0.15515977144241333,0.02321287989616394,-0.02321287989616394
1772734448962349600,9.606349609375,-0.17348572611808777,0.006108652334660292,-0.013439035043120384
1772734448972400600,9.616400634765625,-0.18081611394882202,-0.05253441259264946,-0.04886921867728233
1772734448982391600,9.6263916015625,-0.1918116807937622,-0.08796459436416626,-0.00733038317412138
1772734448993342000,9.637342041015625,-0.1966986060142517,-0.11728613078594208,0.01466076634824276
1772734449002445300,9.6464453125,-0.16493362188339233,-0.12828169763088226,0.024434609338641167
1772734449014974700,9.658974609375,-0.15027284622192383,-0.13805554807186127,0.06475171446800232
1772734449032539100,9.6765390625,-0.13561208546161652,-0.1319468915462494,0.12461651116609573
1772734449042539800,9.686539794921876,-0.1160643994808197,-0.11484266817569733,0.12461651116609573
1772734449052589600,9.696589599609375,-0.10506882518529892,-0.08918632566928864,0.08674286305904388
1772734449062571300,9.7065712890625,-0.10873401165008545,-0.06230825558304787,0.02076941914856434
1772734449072602400,9.716602294921875,-0.11239920556545258,-0.05742133408784866,-0.05497787147760391
1772734449082612700,9.72661279296875,-0.1111774742603302,-0.06719517707824707,-0.1111774742603302
1772734449092972000,9.736971923828126,-0.11484266817569733,-0.08429940044879913,-0.13927727937698364
1772734449102645000,9.74664501953125,-0.11362093687057495,-0.0806342139840126,-0.10751228034496307
1772734449112672000,9.756672119140624,-0.1062905490398407,-0.08674286305904388,-0.004886921960860491
1772734449122672400,9.76667236328125,-0.10873401165008545,-0.09651670604944229,0.10751228034496307
1772734449142736600,9.786736572265625,-0.11484266817569733,-0.07819075137376785,0.3029891550540924
1772734449153377300,9.797377197265625,-0.1160643994808197,-0.07330382615327835,0.4190535545349121
1772734449162780700,9.80678076171875,-0.12217304855585098,-0.06963863968849182,0.4813618063926697
1772734449174419200,9.818419189453126,-0.13561208546161652,-0.059864792972803116,0.4960225820541382
1772734449193197300,9.837197265625,-0.20525072515010834,-0.039095375686883926,0.4398229718208313
1772734449202888700,9.846888671875,-0.2577851414680481,-0.01710422709584236,0.3591887652873993
1772734449212940300,9.856940185546875,-0.304210901260376,-0.010995574295520782,0.2675589919090271
1772734449222923800,9.866923828125,-0.3237585723400116,-0.02932153269648552,0.21991148591041565
1772734449242958800,9.886958740234375,-0.31031954288482666,-0.09285151958465576,0.4239404797554016
1772734449253013500,9.897013427734375,-0.31031954288482666,-0.08674286305904388,0.5192354321479797
1772734449262999300,9.906999267578126,-0.2981022298336029,-0.08185594528913498,0.6524040699005127
1772734449273041400,9.91704150390625,-0.27488934993743896,-0.08552113175392151,0.7538077235221863
1772734449283044900,9.927044921875,-0.2431243658065796,-0.09651670604944229,0.7819074988365173
1772734449293407700,9.93740771484375,-0.21013765037059784,-0.09773843735456467,0.7611380815505981
1772734449303086300,9.94708642578125,-0.17592918872833252,-0.07696902006864548,0.7110471725463867
1772734449313722600,9.95772265625,-0.1417207419872284,-0.05253441259264946,0.6511823534965515
1772734449323124700,9.967124755859375,-0.11972958594560623,-0.03787364438176155,0.5962044596672058
1772734449335689500,9.979689453125,-0.10506882518529892,-0.01710422709584236,0.5155702829360962
1772734449353328000,9.997328125,-0.10262536257505417,-0.00733038317412138,0.3885102868080139
1772734449363367000,10.007366943359376,-0.08918632566928864,-0.00733038317412138,0.31031954288482666
1772734449373447700,10.01744775390625,-0.06475171446800232,-0.004886921960860491,0.22113321721553802
1772734449383463000,10.027462890625,-0.0354301854968071,-0.009773843921720982,0.12461651116609573
1772734449393783000,10.037782958984375,-0.004886921960860491,-0.01710422709584236,0.05253441259264946
1772734449403471400,10.047471435546875,0.024434609338641167,-0.025656340643763542,0.009773843921720982
1772734449413520600,10.057520751953126,0.05619960278272629,-0.03420845419168472,-0.00733038317412138
1772734449423516200,10.06751611328125,0.09040805697441101,-0.03420845419168472,0
1772734449433540600,10.07754052734375,0.12339477986097336,-0.02932153269648552,0.02932153269648552
1772734449443543000,10.08754296875,0.13927727937698364,-0.024434609338641167,0.04398229718208313
1772734449463571200,10.1075712890625,0.16371189057826996,-0.012217304669320583,0.028099801391363144
1772734449474211300,10.11821142578125,0.1771509200334549,0.00366519158706069,-0.00733038317412138
1772734449483619300,10.127619384765625,0.1722639948129654,0.010995574295520782,-0.04398229718208313
1772734449495623700,10.139623779296874,0.16371189057826996,0.013439035043120384,-0.0708603709936142
1772734449503685000,10.14768505859375,0.15515977144241333,0.0012217304902151227,-0.07330382615327835
1772734449513728800,10.157728759765625,0.14049901068210602,-0.021991148591041565,-0.0708603709936142
1772734449523729000,10.16772900390625,0.10995574295520782,-0.05253441259264946,-0.0659734457731247
1772734449533770800,10.177770751953124,0.08796459436416626,-0.06108652427792549,-0.07452555745840073
1772734449543779300,10.187779296875,0.0659734457731247,-0.07208210229873657,-0.08307767659425735
1772734449563814100,10.207814208984376,0.03176499158143997,-0.07696902006864548,-0.06719517707824707
1772734449573861000,10.217861083984374,0.013439035043120384,-0.0806342139840126,-0.05375614017248154
1772734449583839700,10.22783984375,-0.00855211354792118,-0.08307767659425735,-0.04153883829712868
1772734449594194200,10.238194091796874,-0.030543262138962746,-0.08552113175392151,-0.03420845419168472
1772734449603882500,10.247882568359374,-0.04642575979232788,-0.07696902006864548,-0.02932153269648552
1772734449613929500,10.257929443359375,-0.06841690838336945,-0.06841690838336945,0.009773843921720982
1772734449623922200,10.267922119140625,-0.06719517707824707,-0.06475171446800232,0.051312681287527084
1772734449634556400,10.278556396484374,-0.0757472887635231,-0.08674286305904388,0.09285151958465576
1772734449643954700,10.28795458984375,-0.09162978827953339,-0.1160643994808197,0.14049901068210602
1772734449656489000,10.300489013671875,-0.1111774742603302,-0.1514945775270462,0.19425514340400696
1772734449674038500,10.31803857421875,-0.13927727937698364,-0.24678955972194672,0.294437050819397
1772734449684049400,10.32804931640625,-0.15760323405265808,-0.304210901260376,0.34208452701568604
1772734449694400800,10.33840087890625,-0.17837265133857727,-0.3836233615875244,0.40194934606552124
1772734449704091400,10.34809130859375,-0.18936823308467865,-0.4593706727027893,0.46181413531303406
1772734449714113800,10.35811376953125,-0.20525072515010834,-0.5314527750015259,0.48869219422340393
1772734449724122000,10.3681220703125,-0.23945917189121246,-0.5974262356758118,0.48380526900291443
1772734449734170400,10.37817041015625,-0.2773328125476837,-0.6438519954681396,0.4605923891067505
1772734449744150000,10.38814990234375,-0.3225368559360504,-0.6817256212234497,0.4043927788734436
1772734449754258400,10.398258544921875,-0.3384193480014801,-0.6939429044723511,0.3689626157283783
1772734449764208000,10.4082080078125,-0.3604104816913605,-0.6988298296928406,0.3433062732219696
1772734449784251400,10.42825146484375,-0.455705463886261,-0.6829473376274109,0.33475416898727417
1772734449795203300,10.439203369140625,-0.49724429845809937,-0.6536257863044739,0.35185837745666504
1772734449804312800,10.448312744140624,-0.5216789245605469,-0.6230825781822205,0.39584067463874817
1772734449815950600,10.45995068359375,-0.5253441333770752,-0.598647952079773,0.46792277693748474
1772734449824366300,10.468366455078124,-0.5204572081565857,-0.5656611919403076,0.5705481171607971
1772734449834395400,10.4783955078125,-0.50335294008255,-0.5338962078094482,0.7134906053543091
1772734449844390100,10.48839013671875,-0.48258355259895325,-0.5094616413116455,0.8772025108337402
1772734449854445600,10.498445556640625,-0.47280970215797424,-0.485027015209198,1.026253581047058
1772734449864432000,10.50843212890625,-0.4764748811721802,-0.45326200127601624,1.1117748022079468
1772734449884466400,10.528466552734375,-0.49235737323760986,-0.3579670190811157,1.1129964590072632
1772734449894816300,10.538816162109375,-0.49846604466438293,-0.32009339332580566,1.076344609260559
1772734449904491500,10.548491455078125,-0.5057964324951172,-0.2932153046131134,1.0458012819290161
1772734449914510800,10.5585107421875,-0.50335294008255,-0.27977627515792847,1.0641272068023682
1772734449924512500,10.568512451171875,-0.4996877610683441,-0.28099802136421204,1.1349875926971436
1772734449934548500,10.578548583984375,-0.4948008358478546,-0.2834414839744568,1.2278391122817993
1772734449944548000,10.588548095703125,-0.49357911944389343,-0.2590068578720093,1.3182471990585327
1772734449955181000,10.59918115234375,-0.5167919993400574,-0.27122417092323303,1.4037683010101318
1772734449964568800,10.60856884765625,-0.5351179838180542,-0.28466320037841797,1.4208725690841675
1772734449994935000,10.63893505859375,-0.6670648455619812,-0.5375614166259766,1.0445796251296997
1772734450004641000,10.64864111328125,-0.720820963382721,-0.4899139404296875,0.8148942589759827
1772734450014719200,10.65871923828125,-0.7635815739631653,-0.5143485069274902,0.5400048494338989
1772734450024735000,10.66873486328125,-0.7709119319915771,-0.5595525503158569,0.30543261766433716
1772734450034803200,10.67880322265625,-0.7525860071182251,-0.5974262356758118,0.12217304855585098
1772734450044824000,10.688823974609376,-0.7244861721992493,-0.608421802520752,-0.03787364438176155
1772734450054867500,10.698867431640625,-0.6890559792518616,-0.6145304441452026,-0.16737708449363708
1772734450064844800,10.7088447265625,-0.6572909951210022,-0.6499606370925903,-0.2528982162475586
1772734450074872600,10.71887255859375,-0.6695083379745483,-0.7538077235221863,-0.26145032048225403
1772734450104926500,10.748926513671876,-0.7806857824325562,-0.788016140460968,-0.18081611394882202
1772734450115576300,10.759576416015625,-0.8161159753799438,-0.8002334833145142,-0.10995574295520782
1772734450124973800,10.768973876953124,-0.817337691783905,-0.799011766910553,-0.08307767659425735
1772734450136671700,10.780671630859375,-0.8087855577468872,-0.846659243106842,-0.02076941914856434
1772734450145041700,10.789041748046875,-0.797789990901947,-0.8723155856132507,-0.03176499158143997
1772734450155081700,10.799081787109374,-0.7904596328735352,-0.8674286603927612,-0.08307767659425735
1772734450165085700,10.809085693359375,-0.8002334833145142,-0.8979719281196594,-0.15515977144241333
1772734450175139600,10.8191396484375,-0.8319984674453735,-0.9456194043159485,-0.2223549485206604
1772734450205192700,10.849192626953124,-0.9480628371238708,-0.9847147464752197,-0.32986724376678467
1772734450215244500,10.85924462890625,-0.9529497623443604,-1.0054842233657837,-0.35674530267715454
1772734450225220900,10.869220947265624,-0.9443976879119873,-0.9993755221366882,-0.3738495409488678
1772734450235289600,10.87928955078125,-0.9162978529930115,-1.0018190145492554,-0.37629300355911255
1772734450245248800,10.889248779296874,-0.8759807348251343,-1.0115928649902344,-0.3799581825733185
1772734450255269000,10.89926904296875,-0.8222246170043945,-1.0506882667541504,-0.39095374941825867
1772734450265302500,10.909302490234374,-0.7513642311096191,-1.0739010572433472,-0.48869219422340393
1772734450275914500,10.91991455078125,-0.7220427393913269,-1.0946705341339111,-0.6108652353286743
1772734450305611500,10.949611572265624,-0.7305948138237,-1.1435397863388062,-1.0335839986801147
1772734450315431700,10.959431640625,-0.720820963382721,-1.1129964590072632,-1.1691961288452148
1772734450325439700,10.969439697265624,-0.675616979598999,-1.0775662660598755,-1.282817006111145
1772734450335492900,10.979492919921874,-0.5949827432632446,-1.0494664907455444,-1.3646728992462158
1772734450345553700,10.9895537109375,-0.4789183437824249,-1.036027431488037,-1.3927727937698364
1772734450355622700,10.99962255859375,-0.35063666105270386,-1.0335839986801147,-1.3842206001281738
1772734450365630000,11.0096298828125,-0.23579397797584534,-1.0458012819290161,-1.370781660079956
1772734450375687000,11.01968701171875,-0.12217304855585098,-1.1191051006317139,-1.389107584953308
1772734450385705000,11.029705078125,-0.02932153269648552,-1.0751228332519531,-1.4624114036560059
1772734450415841800,11.059841796875,0.08185594528913498,-1.0286970138549805,-1.7177530527114868
1772734450425859300,11.069859375,0.09896016865968704,-0.9566149711608887,-1.7983872890472412
1772734450436552700,11.080552734375,0.1258382350206375,-0.846659243106842,-1.9034560918807983
1772734450445951700,11.08995166015625,0.16249015927314758,-0.7586946487426758,-1.9950858354568481
1772734450457612300,11.1016123046875,0.21135938167572021,-0.7513642311096191,-2.0512855052948
1772734450466064100,11.110064208984374,0.28955012559890747,-0.7574729323387146,-2.072054862976074
1772734450476172300,11.12017236328125,0.35674530267715454,-0.6731734871864319,-2.0500638484954834
1772734450486189800,11.13018994140625,0.44104471802711487,-0.6536257863044739,-2.007303237915039
1772734450496575700,11.14057568359375,0.5229006409645081,-0.5803219676017761,-1.8655824661254883
1772734450516343300,11.16034326171875,0.5949827432632446,-0.3787364661693573,-1.519832730293274
1772734450526328000,11.170328125,0.5949827432632446,-0.29077184200286865,-1.301142930984497
1772734450536355600,11.18035546875,0.5791002511978149,-0.2223549485206604,-1.0519099235534668
1772734450546358500,11.190358642578126,0.5363397002220154,-0.13316862285137177,-0.7782423496246338
1772734450556409900,11.200409912109375,0.5387831330299377,-0.04886921867728233,-0.4813618063926697
1772734450566385000,11.210385009765625,0.5852088928222656,0.021991148591041565,-0.20525072515010834
1772734450576415500,11.22041552734375,0.6646214127540588,0.10018189996480942,0.08307767659425735
1772734450586418400,11.23041845703125,0.7122688889503479,0.1771509200334549,0.4642575979232788
1772734450597388500,11.241388427734375,0.7684684991836548,0.27000242471694946,0.8539896011352539
1772734450606453800,11.250453857421874,0.8002334833145142,0.2919935882091522,1.1520918607711792
1772734450618965200,11.26296533203125,0.9627236127853394,0.3188716471195221,1.216843605041504
1772734450626512600,11.2705126953125,1.0421360731124878,0.3323107063770294,1.1459832191467285
1772734450636569000,11.280569091796876,1.2473868131637573,0.34574973583221436,0.8417723178863525
1772734450646541000,11.290541015625,1.3255776166915894,0.3335324227809906,0.5583308339118958
1772734450656564700,11.300564697265624,1.33168625831604,0.2883284091949463,0.26145032048225403
1772734450666594000,11.310593994140625,1.2779301404953003,0.25045475363731384,-0.004886921960860491
1772734450676679400,11.320679443359374,1.243721604347229,0.2431243658065796,-0.2015855312347412
1772734450686695000,11.33069482421875,1.2791517972946167,0.2736676335334778,-0.2590068578720093
1772734450706823700,11.35082373046875,1.5247195959091187,0.32498031854629517,0.03176499158143997
1772734450716906500,11.360906494140625,1.6383405923843384,0.3176499307155609,0.3078760802745819
1772734450726924500,11.370924560546875,1.7360789775848389,0.32986724376678467,0.5021312236785889
1772734450736988400,11.380988525390626,1.793500304222107,0.33597588539123535,0.5302310585975647
1772734450747050200,11.39105029296875,1.8093829154968262,0.3139847218990326,0.39584067463874817
1772734450757741300,11.4017412109375,1.6920967102050781,0.2675589919090271,0.02076941914856434
1772734450767337500,11.41133740234375,1.55892813205719,0.2370157092809677,-0.21991148591041565
1772734450778833200,11.422833251953126,1.4196507930755615,0.22602014243602753,-0.3787364661693573
1772734450787256800,11.4312568359375,1.3243558406829834,0.21502456068992615,-0.43737950921058655
1772734450797651000,11.44165087890625,1.2986994981765747,0.18814650177955627,-0.38606682419776917
1772734450827462700,11.471462646484374,1.2608258724212646,0.19425514340400696,-0.06108652427792549
1772734450837547300,11.48154736328125,1.1520918607711792,0.2626720666885376,-0.05497787147760391
1772734450847615000,11.491614990234375,0.979827880859375,0.2883284091949463,-0.13805554807186127
1772734450857627600,11.501627685546875,0.7574729323387146,0.2480112910270691,-0.22602014243602753
1772734450867695400,11.5116953125,0.5167919993400574,0.16737708449363708,-0.3066543638706207
1772734450877772300,11.521772216796874,0.12828169763088226,-0.06475171446800232,-0.4056145250797272
1772734450887788800,11.531788818359376,-0.14294247329235077,-0.22479841113090515,-0.4605923891067505
1772734450898163500,11.54216357421875,-0.3579670190811157,-0.3225368559360504,-0.5534439086914062
1772734450918592300,11.56259228515625,-0.6536257863044739,-0.4092797040939331,-0.7354817390441895
1772734450927995600,11.57199560546875,-0.7623597979545593,-0.39584067463874817,-0.779464066028595
1772734450940544500,11.58454443359375,-0.8881980776786804,-0.34697145223617554,-0.8833111524581909
1772734450948118000,11.592117919921876,-0.9370672702789307,-0.3274237811565399,-0.921184778213501
1772734450958203100,11.602203125,-1.0543533563613892,-0.27611109614372253,-0.998153805732727
1772734450968216000,11.612216064453126,-1.2009611129760742,-0.2125810980796814,-1.0714576244354248
1772734450978272000,11.62227197265625,-1.3194689750671387,-0.15515977144241333,-1.1178834438323975
1772734450988291800,11.632291748046875,-1.3927727937698364,-0.11728613078594208,-1.1068878173828125
1772734450998683100,11.64268310546875,-1.441641926765442,-0.10384709388017654,-1.1142182350158691
1772734451028459800,11.672459716796874,-1.36955988407135,-0.16737708449363708,-0.8491026759147644
1772734451038545000,11.682544921875,-1.3341296911239624,-0.15271630883216858,-0.7476990818977356
1772734451048556000,11.69255615234375,-1.2962560653686523,-0.1368338167667389,-0.607200026512146
1772734451058634000,11.702634033203125,-1.2376129627227783,-0.14049901068210602,-0.45814892649650574
1772734451068666000,11.712666015625,-1.1594222784042358,-0.16982053220272064,-0.3335324227809906
1772734451079370200,11.723370361328126,-1.0519099235534668,-0.20891591906547546,-0.20891591906547546
1772734451088774400,11.7327744140625,-0.9297369122505188,-0.25045475363731384,-0.08674286305904388
1772734451100744000,11.744743896484374,-0.7550294399261475,-0.32620203495025635,0.06230825558304787
1772734451128981500,11.7729814453125,-0.37140607833862305,-0.43249258399009705,0.2125810980796814
1772734451139038500,11.78303857421875,-0.24190263450145721,-0.4691445231437683,0.2590068578720093
1772734451149092000,11.793092041015624,-0.09773843735456467,-0.5021312236785889,0.2626720666885376
1772734451159168000,11.80316796875,0.05497787147760391,-0.5351179838180542,0.27000242471694946
1772734451169173800,11.813173828125,0.21868975460529327,-0.5681046843528748,0.31520646810531616
1772734451179231700,11.823231689453126,0.3933972120285034,-0.5962044596672058,0.3274237811565399
1772734451189257700,11.8332578125,0.5534439086914062,-0.6120869517326355,0.2871066629886627
1772734451199643000,11.843642822265625,0.7024950385093689,-0.6108652353286743,0.24434609711170197
1772734451209340000,11.85333984375,0.8405506014823914,-0.5925393104553223,0.2064724564552307
1772734451240103400,11.884103515625,1.3451253175735474,-0.45204028487205505,0.1514945775270462
1772734451249760300,11.89376025390625,1.5063936710357666,-0.41661009192466736,0.09529497474431992
1772734451262032600,11.90603271484375,1.6713273525238037,-0.4337143301963806,0.05497787147760391
1772734451269593600,11.913593505859374,1.8509217500686646,-0.4948008358478546,0.025656340643763542
1772734451279659800,11.92365966796875,2.0219640731811523,-0.5742133259773254,0.05009094998240471
1772734451289664000,11.9336640625,2.1587977409362793,-0.6524040699005127,0.09651670604944229
1772734451300043800,11.944043701171875,2.261423110961914,-0.7342600226402283,0.14294247329235077
1772734451309776400,11.9537763671875,2.3542747497558594,-0.8063421249389648,0.18325957655906677
1772734451339904800,11.98390478515625,2.7391197681427,-0.8197811841964722,0.28099802136421204
1772734451349940500,11.9939404296875,2.85274076461792,-0.7061602473258972,0.1417207419872284
1772734451360011800,12.00401171875,2.9187140464782715,-0.5705481171607971,-0.1014036312699318
1772734451370026200,12.014026123046875,2.9517009258270264,-0.43127086758613586,-0.6206390857696533
1772734451380083000,12.0240830078125,2.9553661346435547,-0.42149701714515686,-0.9871582388877869
1772734451390116000,12.0341162109375,2.9468140602111816,-0.47769662737846375,-1.273043155670166
1772734451401116000,12.045115966796875,2.917492389678955,-0.5656611919403076,-1.3573426008224487
1772734451410214700,12.054214599609375,2.8771753311157227,-0.636521577835083,-1.235169529914856
1772734451421917000,12.0659169921875,2.811201810836792,-0.6499606370925903,-1.0103710889816284
1772734451450425900,12.09442578125,2.3298399448394775,-0.3787364661693573,-0.4801400899887085
1772734451460488700,12.10448876953125,2.107485055923462,-0.27122417092323303,-0.48258355259895325
1772734451470561500,12.1145615234375,1.8887953758239746,-0.20891591906547546,-0.5571091175079346
1772734451480584200,12.124584228515625,1.6676621437072754,-0.18814650177955627,-0.6805039048194885
1772734451490959000,12.134958984375,1.3194689750671387,-0.1722639948129654,-0.9150761365890503
1772734451500982800,12.144982666015625,1.0690141916275024,-0.16859880089759827,-1.007927656173706
1772734451510691800,12.15469189453125,0.8442157506942749,-0.1966986060142517,-0.9896016716957092
1772734451520755500,12.16475537109375,0.6707300543785095,-0.22479841113090515,-0.827111542224884
1772734451530751700,12.174751708984376,0.5387831330299377,-0.20402899384498596,-0.5180137157440186
1772734451561540000,12.2055400390625,0.2076941877603531,-0.0708603709936142,0.6243042945861816
1772734451570927600,12.214927734375,0.1319468915462494,-0.10506882518529892,0.9566149711608887
1772734451583462400,12.22746240234375,0.042760565876960754,-0.1661553531885147,1.3524556159973145
1772734451591021000,12.23502099609375,0.01466076634824276,-0.18081611394882202,1.441641926765442
1772734451601395700,12.245395751953126,-0.03420845419168472,-0.21624629199504852,1.63467538356781
1772734451611079700,12.25507958984375,-0.030543262138962746,-0.22968533635139465,1.7385225296020508
1772734451621123800,12.265123779296875,-0.02321287989616394,-0.2076941877603531,1.7861700057983398
1772734451631147500,12.2751474609375,-0.02687807008624077,-0.15882496535778046,1.7470746040344238
1772734451661257500,12.305257568359375,0.09040805697441101,-0.015882495790719986,1.55892813205719
1772734451671269600,12.31526953125,0.13072516024112701,-0.025656340643763542,1.4844025373458862
1772734451681334300,12.325334228515626,0.1417207419872284,-0.05864306539297104,1.4184291362762451
1772734451691326000,12.335325927734376,0.14294247329235077,-0.08674286305904388,1.3194689750671387
1772734451701687600,12.3456875,0.1514945775270462,-0.09651670604944229,1.1496484279632568
1772734451711417600,12.35541748046875,0.17837265133857727,-0.10018189996480942,0.9101892113685608
1772734451722093000,12.366093017578125,0.26145032048225403,-0.10995574295520782,0.5216789245605469
1772734451731481900,12.37548193359375,0.294437050819397,-0.11362093687057495,0.4092797040939331
1772734451751565800,12.39556591796875,0.3396410644054413,-0.10384709388017654,-0.039095375686883926
1772734451761628200,12.405628173828125,0.31642818450927734,-0.09162978827953339,-0.1563815027475357
1772734451771624000,12.4156240234375,0.2871066629886627,-0.09529497474431992,-0.2370157092809677
1772734451781677300,12.42567724609375,0.27122417092323303,-0.10751228034496307,-0.31031954288482666
1772734451791709400,12.43570947265625,0.2687807083129883,-0.12461651116609573,-0.3481931984424591
1772734451802093000,12.446093017578125,0.2626720666885376,-0.1514945775270462,-0.3530801236629486
1772734451811779600,12.455779541015625,0.2382374405860901,-0.17348572611808777,-0.3579670190811157
1772734451821828600,12.46582861328125,0.19914206862449646,-0.18325957655906677,-0.38606682419776917
1772734451831841500,12.475841552734375,0.16493362188339233,-0.1722639948129654,-0.4178318381309509
1772734451851894800,12.495894775390624,0.08307767659425735,-0.12950342893600464,-0.4593706727027893
1772734451861945900,12.50594580078125,0.024434609338641167,-0.08307767659425735,-0.46181413531303406
1772734451871966500,12.515966552734374,-0.00733038317412138,-0.05619960278272629,-0.41661009192466736
1772734451882640600,12.526640625,-0.04764748737215996,-0.036651913076639175,-0.32131510972976685
1772734451892030500,12.536030517578125,-0.08674286305904388,-0.02076941914856434,-0.18814650177955627
1772734451904896300,12.548896240234376,-0.12461651116609573,0.009773843921720982,-0.039095375686883926
1772734451912380400,12.55638037109375,-0.16249015927314758,0.05009094998240471,0.08429940044879913
1772734451922199300,12.56619921875,-0.1820378452539444,0.08918632566928864,0.13805554807186127
1772734451932193000,12.576193115234375,-0.17470745742321014,0.10262536257505417,0.1368338167667389
1772734451942262800,12.5862626953125,-0.14294247329235077,0.08429940044879913,0.1270599663257599
1772734451972370400,12.616370361328125,-0.0024434609804302454,0.00733038317412138,0.02321287989616394
1772734451982434000,12.62643408203125,0.09651670604944229,-0.0012217304902151227,0.025656340643763542
1772734451992433400,12.636433349609375,0.16004669666290283,-0.019547687843441963,0.021991148591041565
1772734452002823200,12.6468232421875,0.21502456068992615,-0.051312681287527084,-0.02321287989616394
1772734452012489200,12.6564892578125,0.26511552929878235,-0.09040805697441101,-0.0757472887635231
1772734452022556400,12.666556396484374,0.32009339332580566,-0.12217304855585098,-0.1319468915462494
1772734452032580400,12.676580322265625,0.37751471996307373,-0.1368338167667389,-0.21013765037059784
1772734452043273700,12.687273681640624,0.4349360466003418,-0.14049901068210602,-0.31642818450927734
1772734452052648000,12.69664794921875,0.4862487316131592,-0.14049901068210602,-0.42149701714515686
1772734452064349700,12.708349609375,0.504574716091156,-0.14782938361167908,-0.5143485069274902
1772734452072751400,12.71675146484375,0.49235737323760986,-0.1612684279680252,-0.646295428276062
1772734452082826200,12.726826171875,0.4801400899887085,-0.17470745742321014,-0.789237916469574
1772734452092821000,12.736821044921875,0.48258355259895325,-0.1771509200334549,-0.8869763612747192
1772734452103181800,12.747181884765626,0.475253164768219,-0.15393804013729095,-0.9615018963813782
1772734452112897800,12.756897705078124,0.43615779280662537,-0.13927727937698364,-1.009149432182312
1772734452122961200,12.766961181640625,0.3933972120285034,-0.1160643994808197,-1.0482447147369385
1772734452132958700,12.776958740234376,0.3481931984424591,-0.1014036312699318,-1.0445796251296997
1772734452143007000,12.787007080078125,0.31031954288482666,-0.08429940044879913,-1.0311405658721924
1772734452153031400,12.797031494140626,0.27611109614372253,-0.0659734457731247,-0.9920451641082764
1772734452183176700,12.8271767578125,0.15882496535778046,0.08185594528913498,-0.8674286603927612
1772734452193205200,12.837205322265625,0.11362093687057495,0.1466076523065567,-0.8967501521110535
1772734452204171000,12.8481708984375,0.0708603709936142,0.21013765037059784,-0.9443976879119873
1772734452213234400,12.857234375,0.02321287989616394,0.26145032048225403,-0.998153805732727
1772734452225743000,12.8697431640625,-0.04886921867728233,0.29565876722335815,-1.0739010572433472
1772734452233279700,12.87727978515625,-0.09773843735456467,0.3090978264808655,-1.1203268766403198
1772734452243323000,12.887322998046875,-0.1160643994808197,0.3225368559360504,-1.1301007270812988
1772734452253291800,12.897291748046875,-0.1111774742603302,0.3396410644054413,-1.0812314748764038
1772734452263320600,12.907320556640625,-0.10506882518529892,0.35063666105270386,-0.9834930300712585
1772734452283368200,12.9273681640625,-0.1417207419872284,0.3530801236629486,-0.9272934198379517
1772734452293333000,12.9373330078125,-0.1722639948129654,0.35552358627319336,-0.9712757468223572
1772734452303668200,12.947668212890624,-0.19303341209888458,0.35552358627319336,-1.009149432182312
1772734452313374700,12.957374755859375,-0.1918116807937622,0.35674530267715454,-1.0421360731124878
1772734452323413800,12.967413818359375,-0.16982053220272064,0.3604104816913605,-1.0616837739944458
1772734452333387500,12.977387451171875,-0.14538592100143433,0.35674530267715454,-1.0335839986801147
1772734452343409400,12.987409423828124,-0.1319468915462494,0.3335324227809906,-0.9395107626914978
1772734452353433300,12.997433349609375,-0.12950342893600464,0.294437050819397,-0.8026769161224365
1772734452364087300,13.00808740234375,-0.14049901068210602,0.2528982162475586,-0.6145304441452026
1772734452373455600,13.01745556640625,-0.14538592100143433,0.2541199326515198,-0.5009095072746277
1772734452393515500,13.037515625,-0.12828169763088226,0.2626720666885376,-0.23090706765651703
1772734452403856600,13.047856689453125,-0.12461651116609573,0.24678955972194672,-0.1466076523065567
1772734452413535000,13.057534912109375,-0.11362093687057495,0.24556782841682434,-0.09529497474431992
1772734452423556000,13.06755615234375,-0.10873401165008545,0.2431243658065796,-0.08429940044879913
1772734452433549300,13.07754931640625,-0.10751228034496307,0.22968533635139465,-0.08307767659425735
1772734452443586600,13.087586669921874,-0.11239920556545258,0.20402899384498596,-0.05742133408784866
1772734452453562400,13.097562255859375,-0.11728613078594208,0.16982053220272064,-0.036651913076639175
1772734452463594200,13.10759423828125,-0.10995574295520782,0.13927727937698364,-0.00733038317412138
1772734452473584000,13.117584228515625,-0.10018189996480942,0.13072516024112701,0.03787364438176155
1772734452504352800,13.148352783203125,-0.09896016865968704,0.11484266817569733,0.09896016865968704
1772734452513616100,13.1576162109375,-0.08307767659425735,0.09162978827953339,0.05497787147760391
1772734452524250600,13.168250732421875,-0.06230825558304787,0.0757472887635231,0.04764748737215996
1772734452533601000,13.17760107421875,-0.0354301854968071,0.0757472887635231,0.02687807008624077
1772734452546116600,13.19011669921875,-0.013439035043120384,0.07208210229873657,-0.042760565876960754
1772734452553641700,13.197641845703124,0.00855211354792118,0.05497787147760391,-0.14294247329235077
1772734452563667200,13.207667236328126,0.0354301854968071,0.028099801391363144,-0.25045475363731384
1772734452573624800,13.217624755859376,0.06108652427792549,-0.004886921960860491,-0.35185837745666504
1772734452583634200,13.22763427734375,0.07452555745840073,-0.036651913076639175,-0.4337143301963806
1772734452603989200,13.2479892578125,0.06841690838336945,-0.024434609338641167,-0.44715335965156555
1772734452613652500,13.257652587890625,0.04886921867728233,-0.009773843921720982,-0.4080579876899719
1772734452623660800,13.267660888671875,0.02687807008624077,0.00733038317412138,-0.35552358627319336
1772734452633648600,13.277648681640626,0.019547687843441963,0.02932153269648552,-0.2919935882091522
1772734452643715600,13.287715576171875,0.02076941914856434,0.05253441259264946,-0.14294247329235077
1772734452653717500,13.297717529296875,0.015882495790719986,0.06230825558304787,-0.05742133408784866
1772734452663773200,13.307773193359376,0.010995574295520782,0.06352998316287994,-0.0012217304902151227
1772734452673805000,13.31780517578125,0.01710422709584236,0.06230825558304787,0.04764748737215996
1772734452684488000,13.328488037109375,0.02076941914856434,0.06475171446800232,0.05253441259264946
1772734452705910000,13.349909912109375,0.039095375686883926,0.059864792972803116,-0.05009094998240471
1772734452715031800,13.35903173828125,0.06352998316287994,0.04764748737215996,-0.09773843735456467
1772734452725105700,13.369105712890626,0.07452555745840073,0.039095375686883926,-0.14416420459747314
1772734452735107800,13.37910791015625,0.04886921867728233,0.03298672288656235,-0.2064724564552307
1772734452745285000,13.38928515625,0.021991148591041565,0.03176499158143997,-0.2321287989616394
1772734452755199000,13.399198974609375,0.00855211354792118,0.03298672288656235,-0.24556782841682434
1772734452765247500,13.40924755859375,0.01466076634824276,0.0354301854968071,-0.2370157092809677
1772734452775265300,13.419265380859375,0.02932153269648552,0.02687807008624077,-0.20525072515010834
1772734452785326800,13.429326904296875,0.03787364438176155,0.019547687843441963,-0.1661553531885147
1772734452815434800,13.459434814453125,0.00855211354792118,0.05742133408784866,-0.13561208546161652
1772734452825510100,13.46951025390625,-0.006108652334660292,0.06719517707824707,-0.11850785464048386
1772734452835512800,13.479512939453125,-0.018325956538319588,0.07452555745840073,-0.1160643994808197
1772734452846179300,13.490179443359375,-0.030543262138962746,0.07330382615327835,-0.10262536257505417
1772734452855585000,13.4995849609375,-0.028099801391363144,0.0708603709936142,-0.059864792972803116
1772734452868150300,13.512150390625,-0.024434609338641167,0.07941248267889023,-0.006108652334660292
1772734452875680800,13.5196806640625,-0.028099801391363144,0.09773843735456467,0.03420845419168472
1772734452885721300,13.529721435546875,-0.02932153269648552,0.11239920556545258,0.04398229718208313
1772734452895739600,13.53973974609375,-0.021991148591041565,0.1160643994808197,0.045204028487205505
1772734452925861000,13.569861083984375,-0.015882495790719986,0.07941248267889023,0.028099801391363144
1772734452935885800,13.5798857421875,-0.02321287989616394,0.06841690838336945,0.004886921960860491
1772734452945961500,13.58996142578125,-0.02321287989616394,0.06230825558304787,-0.010995574295520782
1772734452955961900,13.5999619140625,-0.013439035043120384,0.05619960278272629,-0.01710422709584236
1772734452966016500,13.6100166015625,-0.00366519158706069,0.04398229718208313,-0.01710422709584236
1772734452976036400,13.620036376953125,0.006108652334660292,0.02932153269648552,0.0012217304902151227
1772734452986500600,13.63050048828125,0.01710422709584236,0.012217304669320583,0.025656340643763542
1772734452996129300,13.64012939453125,0.01710422709584236,-0.0012217304902151227,0.02932153269648552
1772734453027868000,13.671867919921874,-0.004886921960860491,-0.03787364438176155,0.018325956538319588
1772734453046363400,13.69036328125,0.0024434609804302454,-0.030543262138962746,0.0012217304902151227
1772734453056383200,13.70038330078125,0,-0.021991148591041565,0.00366519158706069
1772734453066451500,13.710451416015625,-0.0012217304902151227,-0.02076941914856434,0
1772734453076466700,13.720466796875,0.0024434609804302454,-0.02321287989616394,-0.006108652334660292
1772734453086513700,13.730513671875,0.013439035043120384,-0.025656340643763542,-0.01466076634824276
1772734453096531500,13.740531494140624,0.012217304669320583,-0.024434609338641167,-0.030543262138962746
1772734453126663200,13.7706630859375,0.00366519158706069,-0.05619960278272629,-0.10384709388017654
1772734453136680000,13.780679931640625,-0.0012217304902151227,-0.0708603709936142,-0.11728613078594208
1772734453146746400,13.790746337890624,-0.0012217304902151227,-0.08429940044879913,-0.11484266817569733
1772734453156777200,13.800777099609375,0.00366519158706069,-0.09773843735456467,-0.09407325088977814
1772734453167435000,13.81143505859375,0.015882495790719986,-0.10751228034496307,-0.05497787147760391
1772734453176839400,13.82083935546875,0.03176499158143997,-0.1270599663257599,-0.012217304669320583
1772734453189396200,13.833396240234375,0.05619960278272629,-0.18325957655906677,0.0403171069920063
1772734453196946000,13.84094580078125,0.06230825558304787,-0.2028072625398636,0.06841690838336945
1772734453227103700,13.871103759765624,0.02932153269648552,-0.3738495409488678,0.1062905490398407
1772734453237125000,13.881125,0.0403171069920063,-0.41172316670417786,0.09651670604944229
1772734453247185200,13.89118505859375,0.05864306539297104,-0.44593164324760437,0.11972958594560623
1772734453257213400,13.90121337890625,0.05253441259264946,-0.4715879559516907,0.1417207419872284
1772734453267249700,13.911249755859375,0.03176499158143997,-0.4862487316131592,0.14416420459747314
1772734453277233200,13.921233154296875,0.00733038317412138,-0.48869219422340393,0.1466076523065567
1772734453287245600,13.93124560546875,-0.019547687843441963,-0.4813618063926697,0.16249015927314758
1772734453297216800,13.941216796875,-0.05253441259264946,-0.46547931432724,0.19914206862449646
1772734453307598600,13.9515986328125,-0.09040805697441101,-0.45204028487205505,0.2577851414680481
1772734453337356500,13.9813564453125,-0.15027284622192383,-0.46792277693748474,0.513126790523529
1772734453349084000,13.993083984375,-0.16493362188339233,-0.49724429845809937,0.7000515460968018
1772734453357452000,14.0014521484375,-0.1820378452539444,-0.5106833577156067,0.8527678847312927
1772734453367509500,14.011509521484374,-0.2028072625398636,-0.5143485069274902,1.0103710889816284
1772734453377527800,14.02152783203125,-0.21624629199504852,-0.5057964324951172,1.1252137422561646
1772734453387600000,14.031599853515624,-0.2223549485206604,-0.4801400899887085,1.1716395616531372
1772734453397620500,14.041620361328125,-0.22113321721553802,-0.44715335965156555,1.177748203277588
1772734453407984000,14.051984130859376,-0.20402899384498596,-0.42271876335144043,1.1655309200286865
1772734453417692200,14.061692138671875,-0.1722639948129654,-0.41172316670417786,1.1435397863388062
1772734453447829800,14.091829833984375,-0.11728613078594208,-0.3995058834552765,0.9749409556388855
1772734453457847300,14.101847412109375,-0.09896016865968704,-0.394618958234787,0.9150761365890503
1772734453467924000,14.111924072265625,-0.06475171446800232,-0.40194934606552124,0.9150761365890503
1772734453477931300,14.12193115234375,0.013439035043120384,-0.4190535545349121,1.0103710889816284
1772734453488595700,14.132595703125,0.08185594528913498,-0.4288274049758911,1.1007791757583618
1772734453497997300,14.141997314453125,0.16004669666290283,-0.43127086758613586,1.1618657112121582
1772734453510890000,14.154889892578124,0.24068090319633484,-0.4202753007411957,1.1838568449020386
1772734453518460200,14.162460205078125,0.3176499307155609,-0.3897320330142975,1.1533136367797852
1772734453528157700,14.17215771484375,0.39706242084503174,-0.3543018400669098,1.06657075881958
1772734453548254700,14.192254638671875,0.5607742667198181,-0.2883284091949463,0.9370672702789307
1772734453558265000,14.20226513671875,0.608421802520752,-0.26022860407829285,0.8710938692092896
1772734453568334000,14.212333984375,0.6414085030555725,-0.24434609711170197,0.7733554244041443
1772734453578340000,14.222340087890625,0.6866125464439392,-0.23335053026676178,0.6866125464439392
1772734453588415200,14.232415283203125,0.7623597979545593,-0.20525072515010834,0.6352998614311218
1772734453598393300,14.242393310546875,0.836885392665863,-0.17592918872833252,0.6120869517326355
1772734453608765700,14.252765625,0.9248499870300293,-0.12339477986097336,0.6010913848876953
1772734453618452700,14.26245263671875,0.9676105380058289,-0.09407325088977814,0.6010913848876953
1772734453628533000,14.272532958984375,0.9993755221366882,-0.06841690838336945,0.6206390857696533
1772734453649196000,14.293196044921874,1.007927656173706,-0.045204028487205505,0.6988298296928406
1772734453658585600,14.302585693359376,1.0005972385406494,0.00366519158706069,0.7220427393913269
1772734453670280000,14.314280029296874,0.9920451641082764,0.051312681287527084,0.720820963382721
1772734453678700800,14.32270068359375,0.9944885969161987,0.08185594528913498,0.7195992469787598
1772734453688756500,14.332756591796874,0.9920451641082764,0.08796459436416626,0.7391469478607178
1772734453698763800,14.342763671875,0.9676105380058289,0.07452555745840073,0.7232644557952881
1772734453709130200,14.353130126953126,0.9443976879119873,0.07452555745840073,0.646295428276062
1772734453718852000,14.36285205078125,0.9358455538749695,0.09040805697441101,0.5351179838180542
1772734453728895700,14.372895751953125,0.9724974632263184,0.12950342893600464,0.3738495409488678
1772734453738906600,14.38290673828125,1.017701506614685,0.1417207419872284,0.28588494658470154
1772734453758967800,14.4029677734375,1.0140362977981567,0.14538592100143433,0.2577851414680481
1772734453769014500,14.4130146484375,0.96883225440979,0.15393804013729095,0.19425514340400696
1772734453779027500,14.42302734375,0.9346238374710083,0.16004669666290283,0.1319468915462494
1772734453789090800,14.4330908203125,0.9138544201850891,0.16493362188339233,0.13316862285137177
1772734453799091000,14.443091064453125,0.8759807348251343,0.17470745742321014,0.1417207419872284
1772734453810052900,14.454052978515625,0.8210029006004333,0.16371189057826996,0.14905111491680145
1772734453819149300,14.4631494140625,0.7941248416900635,0.15271630883216858,0.16371189057826996
1772734453831689000,14.47568896484375,0.779464066028595,0.14294247329235077,0.2785545587539673
1772734453859262700,14.5032626953125,0.750142514705658,0.1612684279680252,0.4642575979232788
1772734453869323500,14.513323486328124,0.7367035150527954,0.16737708449363708,0.4349360466003418
1772734453879353900,14.523353759765625,0.7073819637298584,0.16493362188339233,0.35063666105270386
1772734453889407700,14.53340771484375,0.675616979598999,0.15882496535778046,0.2541199326515198
1772734453899444700,14.54344482421875,0.6548475623130798,0.16737708449363708,0.1918116807937622
1772734453909828900,14.553828857421875,0.6438519954681396,0.17348572611808777,0.16004669666290283
1772734453919583200,14.563583251953125,0.646295428276062,0.17470745742321014,0.16859880089759827
1772734453929532200,14.5735322265625,0.656069278717041,0.16982053220272064,0.22113321721553802
1772734453939668700,14.583668701171876,0.656069278717041,0.15271630883216858,0.2834414839744568
1772734453970141000,14.614140869140625,0.5497786998748779,0.11362093687057495,0.19547687470912933
1772734453979526000,14.62352587890625,0.5167919993400574,0.1014036312699318,0.17470745742321014
1772734453991218700,14.63521875,0.44104471802711487,0.10262536257505417,0.1722639948129654
1772734453999596000,14.643595947265625,0.4141666293144226,0.1417207419872284,0.2321287989616394
1772734454009951700,14.65395166015625,0.37751471996307373,0.2015855312347412,0.3127630054950714
1772734454019652400,14.66365234375,0.3237585723400116,0.251676470041275,0.3445279896259308
1772734454029725200,14.67372509765625,0.27122417092323303,0.28466320037841797,0.294437050819397
1772734454039729700,14.683729736328125,0.23457226157188416,0.29077184200286865,0.23579397797584534
1772734454069873200,14.713873046875,0.1160643994808197,0.2076941877603531,0.32009339332580566
1772734454079882800,14.7238828125,0.06108652427792549,0.18570303916931152,0.43127086758613586
1772734454089931500,14.733931640625,0.018325956538319588,0.1869247704744339,0.5204572081565857
1772734454099963600,14.743963623046875,-0.012217304669320583,0.20036379992961884,0.5412266254425049
1772734454110344700,14.7543447265625,-0.0659734457731247,0.2321287989616394,0.45692721009254456
1772734454120036900,14.764036865234376,-0.11850785464048386,0.2528982162475586,0.4141666293144226
1772734454130691600,14.774691650390626,-0.17104226350784302,0.25534167885780334,0.3396410644054413
1772734454140098800,14.784098876953125,-0.2015855312347412,0.2565633952617645,0.29565876722335815
1772734454152662500,14.79666259765625,-0.20036379992961884,0.26511552929878235,0.28099802136421204
1772734454180268800,14.824268798828125,-0.12828169763088226,0.21868975460529327,0.39217549562454224
1772734454190338000,14.834338134765625,-0.11362093687057495,0.17837265133857727,0.36163222789764404
1772734454200348000,14.844347900390625,-0.09529497474431992,0.1466076523065567,0.2590068578720093
1772734454210702800,14.854702880859374,-0.0806342139840126,0.13316862285137177,0.13805554807186127
1772734454220423700,14.864423583984374,-0.08307767659425735,0.1368338167667389,0.01710422709584236
1772734454230495200,14.8744951171875,-0.10995574295520782,0.16249015927314758,-0.13439035415649414
1772734454240758300,14.88475830078125,-0.1258382350206375,0.1661553531885147,-0.17348572611808777
1772734454250548500,14.894548583984376,-0.13072516024112701,0.15393804013729095,-0.1563815027475357
1772734454260565800,14.904565673828126,-0.14538592100143433,0.10262536257505417,-0.06841690838336945
1772734454291300400,14.93530029296875,-0.10995574295520782,0.1319468915462494,0.16737708449363708
1772734454300703200,14.944703125,-0.13927727937698364,0.11972958594560623,0.1368338167667389
1772734454312665600,14.95666552734375,-0.14416420459747314,0.03420845419168472,0.004886921960860491
1772734454320785000,14.964784912109375,-0.13316862285137177,-0.013439035043120384,-0.009773843921720982
1772734454330822400,14.974822509765625,-0.10018189996480942,-0.05253441259264946,0
1772734454340858000,14.984858154296875,-0.09040805697441101,-0.09040805697441101,0.04764748737215996
